"workerid","rt","trial_type","stim_type","trial_num","stim_determiner","stim_property","response","stim_category","stim_prevalence","type"
0,2041,"implied_prevalence","part",0,"generic","legs",0.6,"ollers",NA,"part"
0,8076,"implied_prevalence","part",1,"generic","ears",0.97,"moxes",NA,"part"
0,2873,"implied_prevalence","disease",2,"generic","rotten teeth",0.52,"trufts",NA,"accidental_high"
0,2290,"implied_prevalence","accidental",3,"generic","sore legs",0.86,"kazzes",NA,"accidental_low"
0,4202,"implied_prevalence","color",4,"generic","orange ears",0.98,"dorbs",NA,"color"
0,4681,"implied_prevalence","part",5,"generic","tails",0.98,"kweps",NA,"part"
0,12577,"implied_prevalence","color",6,"generic","blue claws",0.78,"stups",NA,"color"
0,2330,"implied_prevalence","disease",7,"generic","worn-out claws",0.96,"pangolins",NA,"accidental_high"
0,1678,"implied_prevalence","accidental",8,"generic","wet fur",0.6,"ackles",NA,"accidental_high"
0,1648,"implied_prevalence","color",9,"generic","violet skin",0.86,"grinks",NA,"color"
0,2164,"implied_prevalence","disease",10,"generic","infected ears",0.95,"elleps",NA,"accidental_low"
0,8666,"implied_prevalence","disease",11,"generic","torn feathers",0.6,"lorches",NA,"accidental_high"
0,2056,"implied_prevalence","vague",12,"generic","small ears",0.85,"sapers",NA,"vague"
0,2973,"implied_prevalence","color",13,"generic","silver legs",0.9,"cheebas",NA,"color"
0,3081,"implied_prevalence","color",14,"generic","orange tails",0.98,"zoovs",NA,"color"
0,1730,"implied_prevalence","part",15,"generic","feathers",0.87,"plovs",NA,"part"
0,1838,"implied_prevalence","part",16,"generic","claws",0.96,"blins",NA,"part"
0,1733,"implied_prevalence","vague",17,"generic","long legs",0.77,"javs",NA,"vague"
0,1578,"implied_prevalence","accidental",18,"generic","sore teeth",0.94,"luzaks",NA,"accidental_low"
0,1436,"implied_prevalence","vague",19,"generic","long teeth",0.67,"crullets",NA,"vague"
0,1398,"implied_prevalence","vague",20,"generic","rough skin",0.88,"mooks",NA,"vague"
0,1626,"implied_prevalence","color",21,"generic","pink teeth",0.58,"morseths",NA,"color"
0,4718,"implied_prevalence","part",22,"generic","teeth",0.87,"thups",NA,"part"
0,2915,"implied_prevalence","accidental",23,"generic","swollen ears",0.94,"krivels",NA,"accidental_low"
0,1286,"implied_prevalence","accidental",24,"generic","muddy feathers",0.62,"wugs",NA,"accidental_high"
0,1954,"implied_prevalence","vague",25,"generic","curly fur",0.51,"feps",NA,"vague"
0,1575,"implied_prevalence","disease",26,"generic","broken legs",0.73,"zorbs",NA,"accidental_low"
0,1281,"implied_prevalence","accidental",27,"generic","cracked claws",0.86,"glippets",NA,"accidental_low"
0,1609,"implied_prevalence","vague",28,"generic","long tails",0.63,"daiths",NA,"vague"
0,1571,"implied_prevalence","disease",29,"generic","fungus-covered fur",0.86,"taifels",NA,"accidental_high"
1,4078,"implied_prevalence","part",0,"generic","ears",1,"morseths",NA,"part"
1,4745,"implied_prevalence","vague",1,"generic","long legs",0.62,"zorbs",NA,"vague"
1,2053,"implied_prevalence","vague",2,"generic","small ears",0.34,"elleps",NA,"vague"
1,2023,"implied_prevalence","part",3,"generic","teeth",1,"taifels",NA,"part"
1,2206,"implied_prevalence","vague",4,"generic","smooth feathers",0.46,"moxes",NA,"vague"
1,2647,"implied_prevalence","color",5,"generic","violet skin",0.51,"kweps",NA,"color"
1,1493,"implied_prevalence","accidental",6,"generic","dusty skin",0.16,"blins",NA,"accidental_high"
1,1583,"implied_prevalence","vague",7,"generic","rough skin",0.21,"luzaks",NA,"vague"
1,1925,"implied_prevalence","disease",8,"generic","burned skin",0.08,"grinks",NA,"accidental_low"
1,2508,"implied_prevalence","part",9,"generic","tails",1,"sapers",NA,"part"
1,2076,"implied_prevalence","disease",10,"generic","rotten teeth",0.37,"dorbs",NA,"accidental_high"
1,2302,"implied_prevalence","accidental",11,"generic","wet fur",0.72,"javs",NA,"accidental_high"
1,1713,"implied_prevalence","part",12,"generic","fur",0.81,"mooks",NA,"part"
1,3699,"implied_prevalence","color",13,"generic","yellow fur",0.51,"feps",NA,"color"
1,1849,"implied_prevalence","accidental",14,"generic","sore teeth",0.22,"glippets",NA,"accidental_low"
1,1658,"implied_prevalence","color",15,"generic","silver legs",0.16,"pangolins",NA,"color"
1,1651,"implied_prevalence","accidental",16,"generic","cracked claws",0.12,"wugs",NA,"accidental_low"
1,1377,"implied_prevalence","part",17,"generic","feathers",0.72,"ollers",NA,"part"
1,2471,"implied_prevalence","color",18,"generic","orange tails",0.09,"kazzes",NA,"color"
1,4822,"implied_prevalence","accidental",19,"generic","swollen ears",0.11,"cheebas",NA,"accidental_low"
1,3473,"implied_prevalence","color",20,"generic","purple feathers",0.11,"plovs",NA,"color"
1,1889,"implied_prevalence","color",21,"generic","pink teeth",0.08,"krivels",NA,"color"
1,1396,"implied_prevalence","part",22,"generic","claws",0.57,"zoovs",NA,"part"
1,1695,"implied_prevalence","disease",23,"generic","broken legs",0.04,"thups",NA,"accidental_low"
1,1561,"implied_prevalence","disease",24,"generic","worn-out claws",0.06,"reesles",NA,"accidental_high"
1,1412,"implied_prevalence","accidental",25,"generic","itchy tails",0.14,"lorches",NA,"accidental_high"
1,1693,"implied_prevalence","vague",26,"generic","curly fur",0.48,"stups",NA,"vague"
1,1499,"implied_prevalence","disease",27,"generic","torn tails",0.1,"crullets",NA,"accidental_low"
1,1748,"implied_prevalence","disease",28,"generic","fungus-covered fur",0.08,"trufts",NA,"accidental_high"
1,1698,"implied_prevalence","vague",29,"generic","big claws",0.6,"daiths",NA,"vague"
2,9216,"implied_prevalence","accidental",0,"generic","sore legs",1,"taifels",NA,"accidental_low"
2,5038,"implied_prevalence","color",1,"generic","violet skin",0.99,"mooks",NA,"color"
2,5229,"implied_prevalence","vague",2,"generic","smooth feathers",1,"dorbs",NA,"vague"
2,4007,"implied_prevalence","part",3,"generic","tails",1,"sapers",NA,"part"
2,6357,"implied_prevalence","accidental",4,"generic","dusty skin",0.95,"pangolins",NA,"accidental_high"
2,4334,"implied_prevalence","part",5,"generic","claws",0.95,"thups",NA,"part"
2,5068,"implied_prevalence","color",6,"generic","purple feathers",1,"kweps",NA,"color"
2,6281,"implied_prevalence","disease",7,"generic","infected ears",0.84,"blins",NA,"accidental_low"
2,4153,"implied_prevalence","color",8,"generic","silver legs",0.9,"kazzes",NA,"color"
2,7996,"implied_prevalence","disease",9,"generic","burned skin",0.8,"elleps",NA,"accidental_low"
2,4671,"implied_prevalence","vague",10,"generic","rough skin",0.8,"feps",NA,"vague"
2,7501,"implied_prevalence","accidental",11,"generic","wet fur",0.69,"glippets",NA,"accidental_high"
2,6989,"implied_prevalence","accidental",12,"generic","sore teeth",0.75,"luzaks",NA,"accidental_low"
2,6112,"implied_prevalence","accidental",13,"generic","itchy tails",0.7,"stups",NA,"accidental_high"
2,5281,"implied_prevalence","part",14,"generic","teeth",1,"ollers",NA,"part"
2,6479,"implied_prevalence","vague",15,"generic","big claws",0.8,"moxes",NA,"vague"
2,5693,"implied_prevalence","disease",16,"generic","fungus-covered fur",0.59,"javs",NA,"accidental_high"
2,4288,"implied_prevalence","disease",17,"generic","rotten teeth",0.75,"daiths",NA,"accidental_high"
2,6809,"implied_prevalence","color",18,"generic","orange tails",0.9,"lorches",NA,"color"
2,2839,"implied_prevalence","part",19,"generic","legs",1,"trufts",NA,"part"
2,4986,"implied_prevalence","disease",20,"generic","torn tails",0.49,"ackles",NA,"accidental_low"
2,6349,"implied_prevalence","accidental",21,"generic","swollen ears",0.65,"krivels",NA,"accidental_low"
2,5521,"implied_prevalence","part",22,"generic","feathers",0.84,"morseths",NA,"part"
2,4194,"implied_prevalence","color",23,"generic","blue claws",0.95,"zoovs",NA,"color"
2,2490,"implied_prevalence","part",24,"generic","skin",1,"frams",NA,"part"
2,3561,"implied_prevalence","vague",25,"generic","long teeth",0.94,"crullets",NA,"vague"
2,4216,"implied_prevalence","vague",26,"generic","small ears",0.81,"reesles",NA,"vague"
2,4950,"implied_prevalence","vague",27,"generic","long legs",0.9,"plovs",NA,"vague"
2,4482,"implied_prevalence","disease",28,"generic","worn-out claws",0.5,"cheebas",NA,"accidental_high"
2,7652,"implied_prevalence","color",29,"generic","pink teeth",0.41,"grinks",NA,"color"
3,6354,"implied_prevalence","color",0,"generic","pink teeth",1,"lorches",NA,"color"
3,9193,"implied_prevalence","accidental",1,"generic","swollen ears",0.83,"krivels",NA,"accidental_low"
3,6161,"implied_prevalence","color",2,"generic","yellow fur",0.53,"plovs",NA,"color"
3,3441,"implied_prevalence","accidental",3,"generic","sore teeth",0.72,"zoovs",NA,"accidental_low"
3,7820,"implied_prevalence","vague",4,"generic","smooth feathers",0.52,"grinks",NA,"vague"
3,2466,"implied_prevalence","accidental",5,"generic","dusty skin",0.29,"glippets",NA,"accidental_high"
3,4868,"implied_prevalence","part",6,"generic","teeth",0.81,"luzaks",NA,"part"
3,9359,"implied_prevalence","accidental",7,"generic","cracked claws",0.12,"feps",NA,"accidental_low"
3,2778,"implied_prevalence","disease",8,"generic","infected ears",0.4,"ackles",NA,"accidental_low"
3,5171,"implied_prevalence","disease",9,"generic","rotten teeth",0.18,"daiths",NA,"accidental_high"
3,5268,"implied_prevalence","vague",10,"generic","rough skin",0.59,"pangolins",NA,"vague"
3,4659,"implied_prevalence","color",11,"generic","purple feathers",0.7,"crullets",NA,"color"
3,62793,"implied_prevalence","vague",12,"generic","curly fur",0.85,"kweps",NA,"vague"
3,5962,"implied_prevalence","part",13,"generic","feathers",0.68,"sapers",NA,"part"
3,8658,"implied_prevalence","color",14,"generic","silver legs",0.87,"morseths",NA,"color"
3,3486,"implied_prevalence","disease",15,"generic","burned skin",0.72,"kazzes",NA,"accidental_low"
3,3714,"implied_prevalence","disease",16,"generic","fungus-covered fur",0.19,"elleps",NA,"accidental_high"
3,4080,"implied_prevalence","color",17,"generic","blue claws",0.98,"mooks",NA,"color"
3,2442,"implied_prevalence","vague",18,"generic","small ears",0.62,"ollers",NA,"vague"
3,1736,"implied_prevalence","color",19,"generic","orange ears",0.41,"blins",NA,"color"
3,4132,"implied_prevalence","disease",20,"generic","broken legs",0.04,"reesles",NA,"accidental_low"
3,5742,"implied_prevalence","accidental",21,"generic","itchy tails",0.32,"zorbs",NA,"accidental_high"
3,3142,"implied_prevalence","vague",22,"generic","long tails",0.68,"frams",NA,"vague"
3,3250,"implied_prevalence","accidental",23,"generic","sore legs",0.92,"cheebas",NA,"accidental_low"
3,4762,"implied_prevalence","part",24,"generic","skin",1,"taifels",NA,"part"
3,2584,"implied_prevalence","vague",25,"generic","big claws",0.57,"moxes",NA,"vague"
3,2465,"implied_prevalence","part",26,"generic","tails",0.05,"javs",NA,"part"
3,3276,"implied_prevalence","part",27,"generic","ears",0.98,"wugs",NA,"part"
3,4035,"implied_prevalence","disease",28,"generic","torn tails",0.32,"thups",NA,"accidental_low"
3,2590,"implied_prevalence","part",29,"generic","fur",0.62,"dorbs",NA,"part"
4,6863,"implied_prevalence","part",0,"generic","fur",0.91,"glippets",NA,"part"
4,4568,"implied_prevalence","color",1,"generic","purple feathers",0.84,"feps",NA,"color"
4,4047,"implied_prevalence","vague",2,"generic","smooth feathers",0.85,"krivels",NA,"vague"
4,2608,"implied_prevalence","color",3,"generic","pink teeth",0.76,"thups",NA,"color"
4,3168,"implied_prevalence","accidental",4,"generic","dusty skin",0.77,"zoovs",NA,"accidental_high"
4,2135,"implied_prevalence","vague",5,"generic","rough skin",0.86,"wugs",NA,"vague"
4,41471,"implied_prevalence","part",6,"generic","skin",0.75,"stups",NA,"part"
4,2976,"implied_prevalence","color",7,"generic","yellow fur",0.88,"javs",NA,"color"
4,3975,"implied_prevalence","accidental",8,"generic","itchy tails",0.75,"elleps",NA,"accidental_high"
4,3377,"implied_prevalence","accidental",9,"generic","muddy feathers",0.8,"morseths",NA,"accidental_high"
4,1784,"implied_prevalence","color",10,"generic","orange tails",0.82,"trufts",NA,"color"
4,3048,"implied_prevalence","disease",11,"generic","rotten teeth",0.94,"kazzes",NA,"accidental_high"
4,3407,"implied_prevalence","disease",12,"generic","infected ears",0.54,"crullets",NA,"accidental_low"
4,2145,"implied_prevalence","color",13,"generic","silver legs",0.64,"pangolins",NA,"color"
4,3336,"implied_prevalence","vague",14,"generic","long teeth",0.74,"daiths",NA,"vague"
4,2879,"implied_prevalence","part",15,"generic","ears",0.96,"cheebas",NA,"part"
4,2072,"implied_prevalence","part",16,"generic","claws",0.95,"frams",NA,"part"
4,2489,"implied_prevalence","accidental",17,"generic","wet fur",0.53,"dorbs",NA,"accidental_high"
4,1951,"implied_prevalence","color",18,"generic","violet skin",0.6,"plovs",NA,"color"
4,2647,"implied_prevalence","disease",19,"generic","torn feathers",0.5,"taifels",NA,"accidental_high"
4,2007,"implied_prevalence","vague",20,"generic","long legs",0.88,"blins",NA,"vague"
4,1280,"implied_prevalence","part",21,"generic","tails",0.87,"grinks",NA,"part"
4,1488,"implied_prevalence","vague",22,"generic","curly fur",0.87,"lorches",NA,"vague"
4,2496,"implied_prevalence","accidental",23,"generic","swollen ears",0.71,"reesles",NA,"accidental_low"
4,1384,"implied_prevalence","disease",24,"generic","worn-out claws",0.86,"zorbs",NA,"accidental_high"
4,1352,"implied_prevalence","disease",25,"generic","torn tails",0.89,"luzaks",NA,"accidental_low"
4,1640,"implied_prevalence","disease",26,"generic","fungus-covered fur",0.89,"ollers",NA,"accidental_high"
4,11103,"implied_prevalence","part",27,"generic","teeth",0.9,"kweps",NA,"part"
4,27040,"implied_prevalence","vague",28,"generic","small ears",0.89,"ackles",NA,"vague"
4,1519,"implied_prevalence","accidental",29,"generic","sore legs",0.79,"sapers",NA,"accidental_low"
5,5540,"implied_prevalence","vague",0,"generic","rough skin",0.49,"reesles",NA,"vague"
5,2480,"implied_prevalence","color",1,"generic","purple feathers",0.37,"lorches",NA,"color"
5,2446,"implied_prevalence","disease",2,"generic","torn tails",0.6,"zoovs",NA,"accidental_low"
5,1775,"implied_prevalence","part",3,"generic","skin",0.39,"moxes",NA,"part"
5,1567,"implied_prevalence","color",4,"generic","yellow fur",0.49,"taifels",NA,"color"
5,2815,"implied_prevalence","part",5,"generic","legs",0.65,"crullets",NA,"part"
5,1727,"implied_prevalence","color",6,"generic","orange ears",0.68,"elleps",NA,"color"
5,1463,"implied_prevalence","vague",7,"generic","long tails",0.5,"frams",NA,"vague"
5,1560,"implied_prevalence","disease",8,"generic","torn feathers",0.3,"cheebas",NA,"accidental_high"
5,2023,"implied_prevalence","vague",9,"generic","long legs",0.44,"blins",NA,"vague"
5,1304,"implied_prevalence","part",10,"generic","claws",0.54,"luzaks",NA,"part"
5,1282,"implied_prevalence","disease",11,"generic","worn-out claws",0.62,"plovs",NA,"accidental_high"
5,1885,"implied_prevalence","disease",12,"generic","infected ears",0.45,"feps",NA,"accidental_low"
5,1521,"implied_prevalence","vague",13,"generic","smooth feathers",0.38,"trufts",NA,"vague"
5,1230,"implied_prevalence","accidental",14,"generic","dusty skin",0.59,"kazzes",NA,"accidental_high"
5,1223,"implied_prevalence","color",15,"generic","blue claws",0.7,"mooks",NA,"color"
5,1271,"implied_prevalence","color",16,"generic","orange tails",0.48,"morseths",NA,"color"
5,1407,"implied_prevalence","vague",17,"generic","big claws",0.38,"ackles",NA,"vague"
5,1264,"implied_prevalence","accidental",18,"generic","sore legs",0.54,"pangolins",NA,"accidental_low"
5,1256,"implied_prevalence","part",19,"generic","ears",0.46,"sapers",NA,"part"
5,1239,"implied_prevalence","part",20,"generic","feathers",0.38,"ollers",NA,"part"
5,1271,"implied_prevalence","accidental",21,"generic","wet fur",0.54,"glippets",NA,"accidental_high"
5,1072,"implied_prevalence","accidental",22,"generic","itchy tails",0.41,"grinks",NA,"accidental_high"
5,1255,"implied_prevalence","accidental",23,"generic","muddy feathers",0.48,"wugs",NA,"accidental_high"
5,1543,"implied_prevalence","part",24,"generic","tails",0.39,"zorbs",NA,"part"
5,1160,"implied_prevalence","disease",25,"generic","burned skin",0.51,"stups",NA,"accidental_low"
5,1215,"implied_prevalence","color",26,"generic","silver legs",0.59,"dorbs",NA,"color"
5,1143,"implied_prevalence","accidental",27,"generic","cracked claws",0.5,"daiths",NA,"accidental_low"
5,1279,"implied_prevalence","disease",28,"generic","fungus-covered fur",0.44,"thups",NA,"accidental_high"
5,1359,"implied_prevalence","vague",29,"generic","curly fur",0.52,"krivels",NA,"vague"
6,4533,"implied_prevalence","color",0,"generic","yellow fur",0.67,"mooks",NA,"color"
6,4675,"implied_prevalence","disease",1,"generic","torn feathers",1,"crullets",NA,"accidental_high"
6,3572,"implied_prevalence","disease",2,"generic","torn tails",1,"zoovs",NA,"accidental_low"
6,2955,"implied_prevalence","color",3,"generic","orange tails",0.89,"lorches",NA,"color"
6,2552,"implied_prevalence","part",4,"generic","feathers",1,"feps",NA,"part"
6,2152,"implied_prevalence","vague",5,"generic","smooth feathers",0.95,"plovs",NA,"vague"
6,2205,"implied_prevalence","disease",6,"generic","infected ears",0.92,"taifels",NA,"accidental_low"
6,3787,"implied_prevalence","vague",7,"generic","long teeth",1,"kazzes",NA,"vague"
6,2454,"implied_prevalence","color",8,"generic","pink teeth",1,"elleps",NA,"color"
6,3072,"implied_prevalence","accidental",9,"generic","swollen ears",0.96,"glippets",NA,"accidental_low"
6,1982,"implied_prevalence","accidental",10,"generic","cracked claws",0.94,"stups",NA,"accidental_low"
6,2578,"implied_prevalence","vague",11,"generic","curly fur",0.93,"grinks",NA,"vague"
6,4063,"implied_prevalence","color",12,"generic","silver legs",0.99,"luzaks",NA,"color"
6,3114,"implied_prevalence","accidental",13,"generic","wet fur",0.83,"dorbs",NA,"accidental_high"
6,2327,"implied_prevalence","disease",14,"generic","burned skin",0.8,"blins",NA,"accidental_low"
6,1841,"implied_prevalence","vague",15,"generic","big claws",0.8,"zorbs",NA,"vague"
6,1868,"implied_prevalence","accidental",16,"generic","dusty skin",0.95,"ollers",NA,"accidental_high"
6,2012,"implied_prevalence","disease",17,"generic","broken legs",0.94,"daiths",NA,"accidental_low"
6,2433,"implied_prevalence","part",18,"generic","ears",1,"cheebas",NA,"part"
6,3185,"implied_prevalence","part",19,"generic","skin",1,"thups",NA,"part"
6,1662,"implied_prevalence","vague",20,"generic","rough skin",0.94,"ackles",NA,"vague"
6,1396,"implied_prevalence","color",21,"generic","purple feathers",0.87,"trufts",NA,"color"
6,2172,"implied_prevalence","part",22,"generic","fur",0.84,"kweps",NA,"part"
6,2172,"implied_prevalence","accidental",23,"generic","itchy tails",0.9,"morseths",NA,"accidental_high"
6,27856,"implied_prevalence","accidental",24,"generic","sore legs",0.98,"reesles",NA,"accidental_low"
6,1533,"implied_prevalence","part",25,"generic","tails",0.96,"pangolins",NA,"part"
6,1267,"implied_prevalence","part",26,"generic","claws",0.85,"wugs",NA,"part"
6,1717,"implied_prevalence","color",27,"generic","violet skin",0.9,"sapers",NA,"color"
6,1592,"implied_prevalence","disease",28,"generic","rotten teeth",0.92,"moxes",NA,"accidental_high"
6,1497,"implied_prevalence","vague",29,"generic","long legs",0.92,"frams",NA,"vague"
7,12016,"implied_prevalence","disease",0,"generic","fungus-covered fur",0.9,"reesles",NA,"accidental_high"
7,8631,"implied_prevalence","disease",1,"generic","infected ears",0.15,"javs",NA,"accidental_low"
7,5666,"implied_prevalence","color",2,"generic","purple feathers",1,"dorbs",NA,"color"
7,5696,"implied_prevalence","accidental",3,"generic","sore teeth",0.06,"mooks",NA,"accidental_low"
7,4040,"implied_prevalence","vague",4,"generic","smooth feathers",1,"stups",NA,"vague"
7,4423,"implied_prevalence","accidental",5,"generic","cracked claws",0.21,"frams",NA,"accidental_low"
7,3505,"implied_prevalence","part",6,"generic","legs",1,"trufts",NA,"part"
7,8457,"implied_prevalence","color",7,"generic","orange tails",0.97,"moxes",NA,"color"
7,6216,"implied_prevalence","color",8,"generic","pink teeth",0.65,"ollers",NA,"color"
7,6122,"implied_prevalence","accidental",9,"generic","dusty skin",0.67,"morseths",NA,"accidental_high"
7,4495,"implied_prevalence","color",10,"generic","blue claws",0.87,"grinks",NA,"color"
7,2877,"implied_prevalence","part",11,"generic","fur",1,"wugs",NA,"part"
7,4163,"implied_prevalence","accidental",12,"generic","swollen ears",0.06,"glippets",NA,"accidental_low"
7,11266,"implied_prevalence","vague",13,"generic","long legs",0.79,"kazzes",NA,"vague"
7,10302,"implied_prevalence","part",14,"generic","tails",1,"luzaks",NA,"part"
7,8632,"implied_prevalence","accidental",15,"generic","sore legs",0.04,"zoovs",NA,"accidental_low"
7,7210,"implied_prevalence","disease",16,"generic","torn tails",0.11,"krivels",NA,"accidental_low"
7,5624,"implied_prevalence","vague",17,"generic","long teeth",0.86,"sapers",NA,"vague"
7,2439,"implied_prevalence","part",18,"generic","claws",1,"zorbs",NA,"part"
7,5695,"implied_prevalence","accidental",19,"generic","wet fur",0.16,"taifels",NA,"accidental_high"
7,3010,"implied_prevalence","color",20,"generic","violet skin",0.94,"elleps",NA,"color"
7,6238,"implied_prevalence","disease",21,"generic","torn feathers",0.1,"thups",NA,"accidental_high"
7,3826,"implied_prevalence","vague",22,"generic","long tails",0.89,"daiths",NA,"vague"
7,4344,"implied_prevalence","disease",23,"generic","broken legs",0.01,"plovs",NA,"accidental_low"
7,5755,"implied_prevalence","part",24,"generic","teeth",1,"kweps",NA,"part"
7,2784,"implied_prevalence","part",25,"generic","skin",1,"ackles",NA,"part"
7,4559,"implied_prevalence","vague",26,"generic","small ears",0.8,"lorches",NA,"vague"
7,3345,"implied_prevalence","vague",27,"generic","rough skin",0.84,"pangolins",NA,"vague"
7,2968,"implied_prevalence","disease",28,"generic","burned skin",0.1,"blins",NA,"accidental_low"
7,2993,"implied_prevalence","color",29,"generic","orange ears",0.93,"crullets",NA,"color"
8,7324,"implied_prevalence","disease",0,"generic","fungus-covered fur",0.97,"taifels",NA,"accidental_high"
8,3614,"implied_prevalence","color",1,"generic","silver legs",0.81,"mooks",NA,"color"
8,6147,"implied_prevalence","color",2,"generic","blue claws",0.81,"zorbs",NA,"color"
8,7081,"implied_prevalence","part",3,"generic","legs",1,"ollers",NA,"part"
8,6091,"implied_prevalence","vague",4,"generic","long legs",0.97,"dorbs",NA,"vague"
8,5302,"implied_prevalence","color",5,"generic","pink teeth",0.95,"stups",NA,"color"
8,4073,"implied_prevalence","vague",6,"generic","rough skin",1,"wugs",NA,"vague"
8,3886,"implied_prevalence","color",7,"generic","orange ears",0.82,"moxes",NA,"color"
8,8215,"implied_prevalence","accidental",8,"generic","sore teeth",0.64,"grinks",NA,"accidental_low"
8,4352,"implied_prevalence","vague",9,"generic","smooth feathers",1,"elleps",NA,"vague"
8,7317,"implied_prevalence","disease",10,"generic","worn-out claws",0.76,"daiths",NA,"accidental_high"
8,5922,"implied_prevalence","disease",11,"generic","infected ears",0.27,"kazzes",NA,"accidental_low"
8,5334,"implied_prevalence","color",12,"generic","orange tails",0.76,"krivels",NA,"color"
8,6077,"implied_prevalence","accidental",13,"generic","wet fur",0.86,"lorches",NA,"accidental_high"
8,4586,"implied_prevalence","part",14,"generic","claws",0.98,"sapers",NA,"part"
8,6655,"implied_prevalence","accidental",15,"generic","muddy feathers",0.66,"javs",NA,"accidental_high"
8,8121,"implied_prevalence","vague",16,"generic","long teeth",0.79,"plovs",NA,"vague"
8,6191,"implied_prevalence","part",17,"generic","skin",1,"cheebas",NA,"part"
8,4102,"implied_prevalence","part",18,"generic","ears",1,"zoovs",NA,"part"
8,5999,"implied_prevalence","disease",19,"generic","broken legs",0.09,"ackles",NA,"accidental_low"
8,4131,"implied_prevalence","disease",20,"generic","rotten teeth",0.27,"blins",NA,"accidental_high"
8,4224,"implied_prevalence","vague",21,"generic","long tails",0.95,"morseths",NA,"vague"
8,4834,"implied_prevalence","part",22,"generic","teeth",0.87,"reesles",NA,"part"
8,8326,"implied_prevalence","accidental",23,"generic","dusty skin",0.91,"thups",NA,"accidental_high"
8,4209,"implied_prevalence","accidental",24,"generic","sore legs",0.22,"frams",NA,"accidental_low"
8,5240,"implied_prevalence","accidental",25,"generic","itchy tails",0.7,"glippets",NA,"accidental_high"
8,3764,"implied_prevalence","vague",26,"generic","small ears",0.98,"feps",NA,"vague"
8,4643,"implied_prevalence","disease",27,"generic","torn tails",0.26,"trufts",NA,"accidental_low"
8,4567,"implied_prevalence","part",28,"generic","feathers",1,"kweps",NA,"part"
8,3323,"implied_prevalence","color",29,"generic","yellow fur",0.88,"luzaks",NA,"color"
9,8500,"implied_prevalence","color",0,"generic","silver legs",0,"wugs",NA,"color"
9,11183,"implied_prevalence","color",1,"generic","blue claws",1,"ollers",NA,"color"
9,5383,"implied_prevalence","vague",2,"generic","rough skin",1,"kweps",NA,"vague"
9,3332,"implied_prevalence","accidental",3,"generic","wet fur",1,"dorbs",NA,"accidental_high"
9,4368,"implied_prevalence","color",4,"generic","purple feathers",1,"zoovs",NA,"color"
9,3335,"implied_prevalence","accidental",5,"generic","swollen ears",1,"sapers",NA,"accidental_low"
9,4376,"implied_prevalence","disease",6,"generic","burned skin",1,"frams",NA,"accidental_low"
9,2680,"implied_prevalence","part",7,"generic","tails",1,"javs",NA,"part"
9,2625,"implied_prevalence","part",8,"generic","skin",1,"reesles",NA,"part"
9,2235,"implied_prevalence","part",9,"generic","teeth",1,"zorbs",NA,"part"
9,1733,"implied_prevalence","vague",10,"generic","smooth feathers",1,"krivels",NA,"vague"
9,2049,"implied_prevalence","vague",11,"generic","long teeth",1,"daiths",NA,"vague"
9,2133,"implied_prevalence","vague",12,"generic","small ears",1,"grinks",NA,"vague"
9,1742,"implied_prevalence","accidental",13,"generic","sore teeth",1,"feps",NA,"accidental_low"
9,1419,"implied_prevalence","accidental",14,"generic","itchy tails",1,"moxes",NA,"accidental_high"
9,2022,"implied_prevalence","accidental",15,"generic","cracked claws",1,"glippets",NA,"accidental_low"
9,1635,"implied_prevalence","color",16,"generic","violet skin",1,"lorches",NA,"color"
9,2416,"implied_prevalence","part",17,"generic","feathers",1,"mooks",NA,"part"
9,2903,"implied_prevalence","part",18,"generic","fur",1,"blins",NA,"part"
9,2076,"implied_prevalence","color",19,"generic","orange tails",1,"thups",NA,"color"
9,1571,"implied_prevalence","color",20,"generic","pink teeth",1,"ackles",NA,"color"
9,1233,"implied_prevalence","vague",21,"generic","long tails",1,"luzaks",NA,"vague"
9,1779,"implied_prevalence","disease",22,"generic","infected ears",1,"crullets",NA,"accidental_low"
9,1368,"implied_prevalence","vague",23,"generic","big claws",1,"taifels",NA,"vague"
9,3553,"implied_prevalence","disease",24,"generic","worn-out claws",1,"stups",NA,"accidental_high"
9,68912,"implied_prevalence","part",25,"generic","claws",1,"pangolins",NA,"part"
9,2121,"implied_prevalence","accidental",26,"generic","dusty skin",1,"cheebas",NA,"accidental_high"
9,7933,"implied_prevalence","disease",27,"generic","fungus-covered fur",1,"elleps",NA,"accidental_high"
9,2077,"implied_prevalence","disease",28,"generic","rotten teeth",1,"trufts",NA,"accidental_high"
9,2359,"implied_prevalence","disease",29,"generic","torn feathers",1,"morseths",NA,"accidental_high"
10,10323,"implied_prevalence","vague",0,"generic","big claws",0.83,"thups",NA,"vague"
10,4902,"implied_prevalence","accidental",1,"generic","itchy tails",0.82,"zoovs",NA,"accidental_high"
10,4000,"implied_prevalence","color",2,"generic","silver legs",0.75,"blins",NA,"color"
10,4693,"implied_prevalence","disease",3,"generic","torn tails",0.91,"taifels",NA,"accidental_low"
10,6398,"implied_prevalence","disease",4,"generic","broken legs",0.37,"wugs",NA,"accidental_low"
10,2684,"implied_prevalence","vague",5,"generic","long tails",0.94,"mooks",NA,"vague"
10,3199,"implied_prevalence","vague",6,"generic","curly fur",0.87,"cheebas",NA,"vague"
10,2914,"implied_prevalence","accidental",7,"generic","swollen ears",0.69,"stups",NA,"accidental_low"
10,2951,"implied_prevalence","accidental",8,"generic","dusty skin",0.85,"elleps",NA,"accidental_high"
10,3513,"implied_prevalence","accidental",9,"generic","muddy feathers",0.47,"zorbs",NA,"accidental_high"
10,2390,"implied_prevalence","color",10,"generic","purple feathers",0.8,"grinks",NA,"color"
10,2941,"implied_prevalence","part",11,"generic","ears",0.99,"luzaks",NA,"part"
10,3056,"implied_prevalence","part",12,"generic","teeth",0.97,"glippets",NA,"part"
10,2962,"implied_prevalence","accidental",13,"generic","sore legs",0.32,"ackles",NA,"accidental_low"
10,1941,"implied_prevalence","color",14,"generic","orange ears",0.88,"morseths",NA,"color"
10,1837,"implied_prevalence","accidental",15,"generic","cracked claws",0.82,"kweps",NA,"accidental_low"
10,2065,"implied_prevalence","vague",16,"generic","smooth feathers",0.82,"crullets",NA,"vague"
10,3600,"implied_prevalence","disease",17,"generic","burned skin",0.63,"feps",NA,"accidental_low"
10,2951,"implied_prevalence","disease",18,"generic","infected ears",0.35,"frams",NA,"accidental_low"
10,2532,"implied_prevalence","part",19,"generic","feathers",0.98,"lorches",NA,"part"
10,2750,"implied_prevalence","disease",20,"generic","worn-out claws",0.7,"daiths",NA,"accidental_high"
10,2581,"implied_prevalence","color",21,"generic","orange tails",0.8,"reesles",NA,"color"
10,2275,"implied_prevalence","color",22,"generic","blue claws",0.81,"ollers",NA,"color"
10,7303,"implied_prevalence","disease",23,"generic","rotten teeth",0.58,"trufts",NA,"accidental_high"
10,2389,"implied_prevalence","color",24,"generic","yellow fur",0.84,"sapers",NA,"color"
10,2675,"implied_prevalence","part",25,"generic","legs",0.98,"javs",NA,"part"
10,2380,"implied_prevalence","part",26,"generic","fur",0.96,"krivels",NA,"part"
10,4218,"implied_prevalence","vague",27,"generic","long legs",0.83,"kazzes",NA,"vague"
10,1752,"implied_prevalence","part",28,"generic","claws",0.95,"moxes",NA,"part"
10,2818,"implied_prevalence","vague",29,"generic","rough skin",0.79,"pangolins",NA,"vague"
11,5940,"implied_prevalence","part",0,"generic","claws",0.94,"frams",NA,"part"
11,3910,"implied_prevalence","accidental",1,"generic","dusty skin",0.5,"blins",NA,"accidental_high"
11,3731,"implied_prevalence","disease",2,"generic","worn-out claws",0.3,"cheebas",NA,"accidental_high"
11,3806,"implied_prevalence","vague",3,"generic","long tails",0.81,"glippets",NA,"vague"
11,10256,"implied_prevalence","color",4,"generic","purple feathers",0.62,"thups",NA,"color"
11,3959,"implied_prevalence","part",5,"generic","skin",0.97,"feps",NA,"part"
11,4135,"implied_prevalence","accidental",6,"generic","muddy feathers",0.26,"trufts",NA,"accidental_high"
11,4915,"implied_prevalence","vague",7,"generic","long legs",0.97,"morseths",NA,"vague"
11,5651,"implied_prevalence","color",8,"generic","orange tails",0.46,"javs",NA,"color"
11,3859,"implied_prevalence","color",9,"generic","blue claws",0.73,"pangolins",NA,"color"
11,3011,"implied_prevalence","disease",10,"generic","torn feathers",0.19,"luzaks",NA,"accidental_high"
11,2647,"implied_prevalence","accidental",11,"generic","itchy tails",0.26,"krivels",NA,"accidental_high"
11,2831,"implied_prevalence","disease",12,"generic","torn tails",0.39,"kazzes",NA,"accidental_low"
11,4739,"implied_prevalence","disease",13,"generic","fungus-covered fur",0.22,"elleps",NA,"accidental_high"
11,3595,"implied_prevalence","vague",14,"generic","small ears",0.81,"stups",NA,"vague"
11,3984,"implied_prevalence","accidental",15,"generic","sore teeth",0.19,"plovs",NA,"accidental_low"
11,2387,"implied_prevalence","vague",16,"generic","rough skin",0.73,"reesles",NA,"vague"
11,3082,"implied_prevalence","accidental",17,"generic","swollen ears",0.32,"daiths",NA,"accidental_low"
11,3641,"implied_prevalence","color",18,"generic","orange ears",0.6,"ackles",NA,"color"
11,2840,"implied_prevalence","disease",19,"generic","broken legs",0.05,"taifels",NA,"accidental_low"
11,3564,"implied_prevalence","part",20,"generic","teeth",0.99,"dorbs",NA,"part"
11,2681,"implied_prevalence","part",21,"generic","tails",0.98,"zoovs",NA,"part"
11,3047,"implied_prevalence","vague",22,"generic","smooth feathers",0.83,"wugs",NA,"vague"
11,3534,"implied_prevalence","color",23,"generic","violet skin",0.41,"crullets",NA,"color"
11,4000,"implied_prevalence","disease",24,"generic","infected ears",0.07,"ollers",NA,"accidental_low"
11,4597,"implied_prevalence","accidental",25,"generic","sore legs",0.15,"sapers",NA,"accidental_low"
11,3485,"implied_prevalence","part",26,"generic","fur",0.87,"zorbs",NA,"part"
11,4230,"implied_prevalence","vague",27,"generic","curly fur",0.29,"grinks",NA,"vague"
11,2984,"implied_prevalence","color",28,"generic","silver legs",0.66,"moxes",NA,"color"
11,2808,"implied_prevalence","part",29,"generic","feathers",0.97,"kweps",NA,"part"
12,11837,"implied_prevalence","accidental",0,"generic","sore teeth",0.9,"morseths",NA,"accidental_low"
12,4129,"implied_prevalence","accidental",1,"generic","sore legs",0.9,"mooks",NA,"accidental_low"
12,4151,"implied_prevalence","color",2,"generic","violet skin",1,"taifels",NA,"color"
12,6770,"implied_prevalence","disease",3,"generic","broken legs",0.2,"luzaks",NA,"accidental_low"
12,2619,"implied_prevalence","part",4,"generic","skin",1,"zorbs",NA,"part"
12,4157,"implied_prevalence","accidental",5,"generic","dusty skin",1,"kazzes",NA,"accidental_high"
12,3160,"implied_prevalence","color",6,"generic","silver legs",1,"dorbs",NA,"color"
12,2740,"implied_prevalence","color",7,"generic","orange tails",1,"reesles",NA,"color"
12,2492,"implied_prevalence","part",8,"generic","legs",1,"stups",NA,"part"
12,6603,"implied_prevalence","accidental",9,"generic","wet fur",0.75,"daiths",NA,"accidental_high"
12,3670,"implied_prevalence","disease",10,"generic","infected ears",0.2,"blins",NA,"accidental_low"
12,2451,"implied_prevalence","vague",11,"generic","long teeth",1,"crullets",NA,"vague"
12,2481,"implied_prevalence","part",12,"generic","claws",1,"sapers",NA,"part"
12,2329,"implied_prevalence","part",13,"generic","tails",1,"plovs",NA,"part"
12,2342,"implied_prevalence","vague",14,"generic","big claws",1,"grinks",NA,"vague"
12,3180,"implied_prevalence","disease",15,"generic","rotten teeth",0.8,"trufts",NA,"accidental_high"
12,6701,"implied_prevalence","disease",16,"generic","burned skin",0.9,"ackles",NA,"accidental_low"
12,2254,"implied_prevalence","vague",17,"generic","small ears",1,"ollers",NA,"vague"
12,3752,"implied_prevalence","accidental",18,"generic","cracked claws",0.93,"cheebas",NA,"accidental_low"
12,5547,"implied_prevalence","disease",19,"generic","fungus-covered fur",0.94,"zoovs",NA,"accidental_high"
12,2800,"implied_prevalence","color",20,"generic","pink teeth",1,"javs",NA,"color"
12,2809,"implied_prevalence","vague",21,"generic","curly fur",1,"krivels",NA,"vague"
12,2469,"implied_prevalence","color",22,"generic","orange ears",1,"glippets",NA,"color"
12,1979,"implied_prevalence","color",23,"generic","purple feathers",1,"kweps",NA,"color"
12,2202,"implied_prevalence","vague",24,"generic","long legs",1,"lorches",NA,"vague"
12,3042,"implied_prevalence","vague",25,"generic","smooth feathers",1,"elleps",NA,"vague"
12,4685,"implied_prevalence","part",26,"generic","ears",1,"feps",NA,"part"
12,2667,"implied_prevalence","part",27,"generic","feathers",1,"moxes",NA,"part"
12,2826,"implied_prevalence","accidental",28,"generic","swollen ears",0.9,"frams",NA,"accidental_low"
12,2559,"implied_prevalence","disease",29,"generic","torn feathers",0.9,"wugs",NA,"accidental_high"
13,7255,"implied_prevalence","part",0,"generic","feathers",1,"krivels",NA,"part"
13,9039,"implied_prevalence","vague",1,"generic","smooth feathers",0.85,"stups",NA,"vague"
13,8448,"implied_prevalence","disease",2,"generic","burned skin",0.25,"javs",NA,"accidental_low"
13,5224,"implied_prevalence","disease",3,"generic","torn tails",0.1,"luzaks",NA,"accidental_low"
13,7488,"implied_prevalence","color",4,"generic","pink teeth",0.95,"plovs",NA,"color"
13,4648,"implied_prevalence","vague",5,"generic","big claws",1,"wugs",NA,"vague"
13,4487,"implied_prevalence","color",6,"generic","blue claws",0.95,"kazzes",NA,"color"
13,2647,"implied_prevalence","part",7,"generic","ears",1,"glippets",NA,"part"
13,5200,"implied_prevalence","accidental",8,"generic","cracked claws",0.15,"trufts",NA,"accidental_low"
13,2390,"implied_prevalence","part",9,"generic","legs",1,"dorbs",NA,"part"
13,4649,"implied_prevalence","color",10,"generic","orange tails",0.75,"mooks",NA,"color"
13,2567,"implied_prevalence","part",11,"generic","teeth",1,"feps",NA,"part"
13,7337,"implied_prevalence","disease",12,"generic","fungus-covered fur",0.3,"reesles",NA,"accidental_high"
13,6503,"implied_prevalence","disease",13,"generic","broken legs",0.02,"cheebas",NA,"accidental_low"
13,5241,"implied_prevalence","disease",14,"generic","torn feathers",0.05,"zoovs",NA,"accidental_high"
13,6224,"implied_prevalence","accidental",15,"generic","dusty skin",0.9,"grinks",NA,"accidental_high"
13,2368,"implied_prevalence","vague",16,"generic","long tails",1,"pangolins",NA,"vague"
13,4960,"implied_prevalence","vague",17,"generic","rough skin",1,"lorches",NA,"vague"
13,5245,"implied_prevalence","color",18,"generic","yellow fur",0.95,"taifels",NA,"color"
13,4635,"implied_prevalence","disease",19,"generic","worn-out claws",0.15,"crullets",NA,"accidental_high"
13,3640,"implied_prevalence","color",20,"generic","violet skin",0.95,"blins",NA,"color"
13,4135,"implied_prevalence","accidental",21,"generic","wet fur",0.5,"ackles",NA,"accidental_high"
13,5400,"implied_prevalence","color",22,"generic","purple feathers",0.9,"zorbs",NA,"color"
13,4328,"implied_prevalence","vague",23,"generic","curly fur",1,"morseths",NA,"vague"
13,2536,"implied_prevalence","vague",24,"generic","long teeth",1,"frams",NA,"vague"
13,3048,"implied_prevalence","part",25,"generic","claws",1,"ollers",NA,"part"
13,2496,"implied_prevalence","part",26,"generic","fur",1,"kweps",NA,"part"
13,5080,"implied_prevalence","accidental",27,"generic","sore teeth",0.1,"elleps",NA,"accidental_low"
13,4960,"implied_prevalence","accidental",28,"generic","sore legs",0.1,"thups",NA,"accidental_low"
13,4848,"implied_prevalence","accidental",29,"generic","itchy tails",0.05,"sapers",NA,"accidental_high"
14,7340,"implied_prevalence","part",0,"generic","teeth",0.92,"dorbs",NA,"part"
14,4264,"implied_prevalence","color",1,"generic","yellow fur",0.82,"blins",NA,"color"
14,4407,"implied_prevalence","accidental",2,"generic","itchy tails",0.63,"mooks",NA,"accidental_high"
14,4159,"implied_prevalence","vague",3,"generic","small ears",0.92,"feps",NA,"vague"
14,5489,"implied_prevalence","vague",4,"generic","rough skin",0.88,"taifels",NA,"vague"
14,6191,"implied_prevalence","disease",5,"generic","broken legs",0.04,"sapers",NA,"accidental_low"
14,3681,"implied_prevalence","vague",6,"generic","long teeth",0.93,"pangolins",NA,"vague"
14,4648,"implied_prevalence","disease",7,"generic","burned skin",0.05,"frams",NA,"accidental_low"
14,6967,"implied_prevalence","part",8,"generic","legs",1,"cheebas",NA,"part"
14,3992,"implied_prevalence","color",9,"generic","violet skin",0.95,"krivels",NA,"color"
14,4120,"implied_prevalence","accidental",10,"generic","swollen ears",0.13,"ackles",NA,"accidental_low"
14,3927,"implied_prevalence","accidental",11,"generic","sore teeth",0.07,"elleps",NA,"accidental_low"
14,3865,"implied_prevalence","color",12,"generic","orange ears",0.93,"grinks",NA,"color"
14,3568,"implied_prevalence","disease",13,"generic","fungus-covered fur",0.87,"trufts",NA,"accidental_high"
14,3343,"implied_prevalence","part",14,"generic","tails",0.98,"stups",NA,"part"
14,3233,"implied_prevalence","vague",15,"generic","long legs",0.96,"wugs",NA,"vague"
14,2983,"implied_prevalence","part",16,"generic","fur",0.99,"thups",NA,"part"
14,5384,"implied_prevalence","part",17,"generic","claws",0.99,"crullets",NA,"part"
14,3720,"implied_prevalence","color",18,"generic","blue claws",0.88,"kazzes",NA,"color"
14,4272,"implied_prevalence","part",19,"generic","ears",1,"glippets",NA,"part"
14,3663,"implied_prevalence","color",20,"generic","orange tails",0.96,"zoovs",NA,"color"
14,3977,"implied_prevalence","vague",21,"generic","curly fur",0.95,"javs",NA,"vague"
14,3544,"implied_prevalence","vague",22,"generic","big claws",0.95,"daiths",NA,"vague"
14,3928,"implied_prevalence","disease",23,"generic","infected ears",0.1,"lorches",NA,"accidental_low"
14,5456,"implied_prevalence","accidental",24,"generic","cracked claws",0.79,"kweps",NA,"accidental_low"
14,3551,"implied_prevalence","accidental",25,"generic","wet fur",0.99,"ollers",NA,"accidental_high"
14,4193,"implied_prevalence","disease",26,"generic","torn tails",0.12,"morseths",NA,"accidental_low"
14,3864,"implied_prevalence","disease",27,"generic","torn feathers",0.12,"zorbs",NA,"accidental_high"
14,2944,"implied_prevalence","color",28,"generic","pink teeth",0.83,"reesles",NA,"color"
14,3856,"implied_prevalence","accidental",29,"generic","dusty skin",0.95,"plovs",NA,"accidental_high"
15,6674,"implied_prevalence","accidental",0,"generic","sore teeth",1,"daiths",NA,"accidental_low"
15,6439,"implied_prevalence","accidental",1,"generic","cracked claws",1,"pangolins",NA,"accidental_low"
15,4052,"implied_prevalence","vague",2,"generic","small ears",1,"kweps",NA,"vague"
15,6250,"implied_prevalence","vague",3,"generic","smooth feathers",0.95,"cheebas",NA,"vague"
15,4132,"implied_prevalence","color",4,"generic","blue claws",1,"frams",NA,"color"
15,2426,"implied_prevalence","part",5,"generic","tails",1,"plovs",NA,"part"
15,3224,"implied_prevalence","accidental",6,"generic","itchy tails",0.9,"glippets",NA,"accidental_high"
15,2491,"implied_prevalence","vague",7,"generic","big claws",1,"luzaks",NA,"vague"
15,3923,"implied_prevalence","disease",8,"generic","infected ears",1,"ollers",NA,"accidental_low"
15,4595,"implied_prevalence","disease",9,"generic","worn-out claws",0.95,"thups",NA,"accidental_high"
15,2513,"implied_prevalence","part",10,"generic","fur",1,"crullets",NA,"part"
15,5067,"implied_prevalence","vague",11,"generic","long tails",0.99,"moxes",NA,"vague"
15,2499,"implied_prevalence","color",12,"generic","orange ears",1,"javs",NA,"color"
15,4043,"implied_prevalence","vague",13,"generic","rough skin",1,"mooks",NA,"vague"
15,5100,"implied_prevalence","accidental",14,"generic","dusty skin",0.9,"morseths",NA,"accidental_high"
15,2261,"implied_prevalence","color",15,"generic","violet skin",1,"taifels",NA,"color"
15,2342,"implied_prevalence","color",16,"generic","orange tails",1,"kazzes",NA,"color"
15,4216,"implied_prevalence","disease",17,"generic","torn tails",0.8,"blins",NA,"accidental_low"
15,2065,"implied_prevalence","part",18,"generic","skin",1,"zorbs",NA,"part"
15,2870,"implied_prevalence","part",19,"generic","ears",1,"zoovs",NA,"part"
15,2031,"implied_prevalence","part",20,"generic","feathers",1,"grinks",NA,"part"
15,4879,"implied_prevalence","disease",21,"generic","torn feathers",0.9,"krivels",NA,"accidental_high"
15,2254,"implied_prevalence","vague",22,"generic","long teeth",1,"stups",NA,"vague"
15,4761,"implied_prevalence","disease",23,"generic","burned skin",0.9,"sapers",NA,"accidental_low"
15,3300,"implied_prevalence","accidental",24,"generic","sore legs",0.88,"lorches",NA,"accidental_low"
15,2221,"implied_prevalence","part",25,"generic","teeth",1,"reesles",NA,"part"
15,1712,"implied_prevalence","color",26,"generic","silver legs",1,"wugs",NA,"color"
15,3262,"implied_prevalence","disease",27,"generic","rotten teeth",0.9,"elleps",NA,"accidental_high"
15,5624,"implied_prevalence","accidental",28,"generic","swollen ears",0.9,"trufts",NA,"accidental_low"
15,2063,"implied_prevalence","color",29,"generic","purple feathers",1,"feps",NA,"color"
16,5455,"implied_prevalence","accidental",0,"generic","swollen ears",0.08,"glippets",NA,"accidental_low"
16,5279,"implied_prevalence","part",1,"generic","tails",0.82,"lorches",NA,"part"
16,7496,"implied_prevalence","color",2,"generic","purple feathers",0.99,"javs",NA,"color"
16,7152,"implied_prevalence","part",3,"generic","fur",1,"thups",NA,"part"
16,7448,"implied_prevalence","vague",4,"generic","long legs",0.95,"daiths",NA,"vague"
16,5726,"implied_prevalence","color",5,"generic","orange ears",0.9,"stups",NA,"color"
16,6855,"implied_prevalence","disease",6,"generic","infected ears",0.94,"frams",NA,"accidental_low"
16,8592,"implied_prevalence","disease",7,"generic","broken legs",0.83,"feps",NA,"accidental_low"
16,3983,"implied_prevalence","vague",8,"generic","smooth feathers",0.95,"kweps",NA,"vague"
16,7520,"implied_prevalence","disease",9,"generic","rotten teeth",0.81,"crullets",NA,"accidental_high"
16,3272,"implied_prevalence","accidental",10,"generic","sore teeth",0.77,"mooks",NA,"accidental_low"
16,3528,"implied_prevalence","vague",11,"generic","big claws",0.87,"pangolins",NA,"vague"
16,4392,"implied_prevalence","part",12,"generic","legs",1,"blins",NA,"part"
16,5001,"implied_prevalence","disease",13,"generic","torn feathers",0.81,"kazzes",NA,"accidental_high"
16,3567,"implied_prevalence","color",14,"generic","yellow fur",0.8,"trufts",NA,"color"
16,3576,"implied_prevalence","disease",15,"generic","burned skin",0.73,"zorbs",NA,"accidental_low"
16,3656,"implied_prevalence","part",16,"generic","teeth",0.91,"reesles",NA,"part"
16,3927,"implied_prevalence","vague",17,"generic","small ears",0.88,"moxes",NA,"vague"
16,4736,"implied_prevalence","part",18,"generic","feathers",0.96,"zoovs",NA,"part"
16,3595,"implied_prevalence","accidental",19,"generic","cracked claws",0.77,"taifels",NA,"accidental_low"
16,4613,"implied_prevalence","color",20,"generic","orange tails",0.87,"ackles",NA,"color"
16,5488,"implied_prevalence","accidental",21,"generic","wet fur",0.6,"plovs",NA,"accidental_high"
16,4264,"implied_prevalence","color",22,"generic","silver legs",0.77,"krivels",NA,"color"
16,2672,"implied_prevalence","vague",23,"generic","rough skin",0.75,"elleps",NA,"vague"
16,3968,"implied_prevalence","vague",24,"generic","long tails",0.79,"sapers",NA,"vague"
16,3424,"implied_prevalence","color",25,"generic","violet skin",0.84,"dorbs",NA,"color"
16,3248,"implied_prevalence","accidental",26,"generic","itchy tails",0.75,"grinks",NA,"accidental_high"
16,4696,"implied_prevalence","disease",27,"generic","worn-out claws",0.62,"ollers",NA,"accidental_high"
16,3864,"implied_prevalence","part",28,"generic","skin",0.93,"cheebas",NA,"part"
16,4832,"implied_prevalence","accidental",29,"generic","dusty skin",0.72,"morseths",NA,"accidental_high"
17,5566,"implied_prevalence","accidental",0,"generic","sore legs",0.63,"cheebas",NA,"accidental_low"
17,3333,"implied_prevalence","disease",1,"generic","torn tails",0.4,"kazzes",NA,"accidental_low"
17,2721,"implied_prevalence","accidental",2,"generic","dusty skin",0.89,"dorbs",NA,"accidental_high"
17,3573,"implied_prevalence","part",3,"generic","skin",1,"crullets",NA,"part"
17,4262,"implied_prevalence","disease",4,"generic","fungus-covered fur",0.91,"ollers",NA,"accidental_high"
17,2384,"implied_prevalence","accidental",5,"generic","cracked claws",0.52,"kweps",NA,"accidental_low"
17,3747,"implied_prevalence","color",6,"generic","pink teeth",0.98,"glippets",NA,"color"
17,2637,"implied_prevalence","vague",7,"generic","big claws",0.97,"trufts",NA,"vague"
17,2159,"implied_prevalence","vague",8,"generic","rough skin",0.98,"blins",NA,"vague"
17,1936,"implied_prevalence","vague",9,"generic","curly fur",0.87,"daiths",NA,"vague"
17,1727,"implied_prevalence","color",10,"generic","orange tails",0.67,"krivels",NA,"color"
17,3664,"implied_prevalence","vague",11,"generic","long teeth",1,"pangolins",NA,"vague"
17,2575,"implied_prevalence","part",12,"generic","claws",0.92,"lorches",NA,"part"
17,2432,"implied_prevalence","part",13,"generic","tails",1,"frams",NA,"part"
17,2128,"implied_prevalence","part",14,"generic","fur",1,"sapers",NA,"part"
17,1962,"implied_prevalence","accidental",15,"generic","swollen ears",0.77,"stups",NA,"accidental_low"
17,2476,"implied_prevalence","vague",16,"generic","long legs",0.89,"luzaks",NA,"vague"
17,1752,"implied_prevalence","color",17,"generic","violet skin",0.73,"zoovs",NA,"color"
17,2984,"implied_prevalence","part",18,"generic","feathers",1,"feps",NA,"part"
17,2000,"implied_prevalence","color",19,"generic","yellow fur",0.88,"mooks",NA,"color"
17,1950,"implied_prevalence","disease",20,"generic","burned skin",0.52,"javs",NA,"accidental_low"
17,2265,"implied_prevalence","disease",21,"generic","infected ears",0.35,"taifels",NA,"accidental_low"
17,2006,"implied_prevalence","part",22,"generic","ears",1,"wugs",NA,"part"
17,2914,"implied_prevalence","accidental",23,"generic","itchy tails",0.4,"zorbs",NA,"accidental_high"
17,2170,"implied_prevalence","color",24,"generic","purple feathers",0.81,"moxes",NA,"color"
17,1936,"implied_prevalence","accidental",25,"generic","sore teeth",0.27,"plovs",NA,"accidental_low"
17,2017,"implied_prevalence","disease",26,"generic","torn feathers",0.32,"thups",NA,"accidental_high"
17,2008,"implied_prevalence","color",27,"generic","silver legs",0.6,"elleps",NA,"color"
17,1654,"implied_prevalence","disease",28,"generic","worn-out claws",0.33,"reesles",NA,"accidental_high"
17,2671,"implied_prevalence","vague",29,"generic","small ears",0.95,"morseths",NA,"vague"
18,13927,"implied_prevalence","disease",0,"generic","broken legs",1,"dorbs",NA,"accidental_low"
18,4159,"implied_prevalence","accidental",1,"generic","itchy tails",1,"lorches",NA,"accidental_high"
18,3265,"implied_prevalence","disease",2,"generic","burned skin",1,"daiths",NA,"accidental_low"
18,2327,"implied_prevalence","accidental",3,"generic","swollen ears",1,"morseths",NA,"accidental_low"
18,2088,"implied_prevalence","color",4,"generic","orange ears",1,"cheebas",NA,"color"
18,2231,"implied_prevalence","color",5,"generic","purple feathers",1,"grinks",NA,"color"
18,2976,"implied_prevalence","color",6,"generic","pink teeth",1,"sapers",NA,"color"
18,2920,"implied_prevalence","disease",7,"generic","torn feathers",1,"feps",NA,"accidental_high"
18,3456,"implied_prevalence","color",8,"generic","orange tails",1,"reesles",NA,"color"
18,2521,"implied_prevalence","vague",9,"generic","small ears",1,"ackles",NA,"vague"
18,2687,"implied_prevalence","vague",10,"generic","long legs",1,"ollers",NA,"vague"
18,2651,"implied_prevalence","part",11,"generic","teeth",1,"zoovs",NA,"part"
18,5196,"implied_prevalence","vague",12,"generic","long tails",1,"krivels",NA,"vague"
18,2056,"implied_prevalence","color",13,"generic","silver legs",1,"taifels",NA,"color"
18,2840,"implied_prevalence","vague",14,"generic","big claws",1,"luzaks",NA,"vague"
18,3697,"implied_prevalence","part",15,"generic","claws",1,"frams",NA,"part"
18,6080,"implied_prevalence","disease",16,"generic","infected ears",1,"crullets",NA,"accidental_low"
18,1680,"implied_prevalence","accidental",17,"generic","cracked claws",1,"blins",NA,"accidental_low"
18,1976,"implied_prevalence","part",18,"generic","feathers",1,"javs",NA,"part"
18,1656,"implied_prevalence","accidental",19,"generic","sore legs",1,"pangolins",NA,"accidental_low"
18,1879,"implied_prevalence","vague",20,"generic","long teeth",1,"glippets",NA,"vague"
18,2018,"implied_prevalence","part",21,"generic","skin",1,"wugs",NA,"part"
18,2274,"implied_prevalence","color",22,"generic","violet skin",1,"elleps",NA,"color"
18,2832,"implied_prevalence","vague",23,"generic","smooth feathers",1,"trufts",NA,"vague"
18,1759,"implied_prevalence","part",24,"generic","fur",1,"plovs",NA,"part"
18,1848,"implied_prevalence","disease",25,"generic","worn-out claws",1,"mooks",NA,"accidental_high"
18,1663,"implied_prevalence","disease",26,"generic","rotten teeth",1,"kweps",NA,"accidental_high"
18,2600,"implied_prevalence","accidental",27,"generic","wet fur",1,"stups",NA,"accidental_high"
18,1639,"implied_prevalence","part",28,"generic","tails",1,"zorbs",NA,"part"
18,1376,"implied_prevalence","accidental",29,"generic","muddy feathers",1,"moxes",NA,"accidental_high"
19,7583,"implied_prevalence","part",0,"generic","teeth",1,"mooks",NA,"part"
19,2317,"implied_prevalence","accidental",1,"generic","itchy tails",1,"zoovs",NA,"accidental_high"
19,4113,"implied_prevalence","vague",2,"generic","long teeth",1,"javs",NA,"vague"
19,5361,"implied_prevalence","color",3,"generic","blue claws",0.64,"stups",NA,"color"
19,3701,"implied_prevalence","color",4,"generic","purple feathers",0.53,"kazzes",NA,"color"
19,3759,"implied_prevalence","disease",5,"generic","torn feathers",0.12,"wugs",NA,"accidental_high"
19,5801,"implied_prevalence","color",6,"generic","orange ears",0.66,"zorbs",NA,"color"
19,3342,"implied_prevalence","accidental",7,"generic","cracked claws",0.18,"frams",NA,"accidental_low"
19,7814,"implied_prevalence","accidental",8,"generic","sore teeth",0.12,"feps",NA,"accidental_low"
19,2505,"implied_prevalence","color",9,"generic","pink teeth",0.55,"cheebas",NA,"color"
19,4927,"implied_prevalence","disease",10,"generic","burned skin",0.16,"grinks",NA,"accidental_low"
19,2351,"implied_prevalence","part",11,"generic","fur",0.98,"luzaks",NA,"part"
19,2959,"implied_prevalence","disease",12,"generic","torn tails",0.1,"sapers",NA,"accidental_low"
19,4328,"implied_prevalence","vague",13,"generic","curly fur",0.74,"kweps",NA,"vague"
19,3928,"implied_prevalence","part",14,"generic","ears",1,"moxes",NA,"part"
19,2662,"implied_prevalence","disease",15,"generic","worn-out claws",0.16,"thups",NA,"accidental_high"
19,3775,"implied_prevalence","disease",16,"generic","broken legs",0.03,"taifels",NA,"accidental_low"
19,3471,"implied_prevalence","part",17,"generic","feathers",1,"ackles",NA,"part"
19,1927,"implied_prevalence","accidental",18,"generic","dusty skin",0.07,"daiths",NA,"accidental_high"
19,3607,"implied_prevalence","accidental",19,"generic","sore legs",0.05,"pangolins",NA,"accidental_low"
19,2496,"implied_prevalence","vague",20,"generic","big claws",0.92,"elleps",NA,"vague"
19,2526,"implied_prevalence","vague",21,"generic","long legs",0.92,"plovs",NA,"vague"
19,6760,"implied_prevalence","part",22,"generic","claws",0.94,"reesles",NA,"part"
19,2819,"implied_prevalence","vague",23,"generic","rough skin",0.77,"krivels",NA,"vague"
19,2061,"implied_prevalence","accidental",24,"generic","swollen ears",0.19,"lorches",NA,"accidental_low"
19,3960,"implied_prevalence","disease",25,"generic","fungus-covered fur",0.2,"trufts",NA,"accidental_high"
19,2471,"implied_prevalence","color",26,"generic","violet skin",0.62,"ollers",NA,"color"
19,2951,"implied_prevalence","part",27,"generic","tails",0.88,"dorbs",NA,"part"
19,5855,"implied_prevalence","color",28,"generic","silver legs",0.52,"blins",NA,"color"
19,2185,"implied_prevalence","vague",29,"generic","small ears",0.91,"glippets",NA,"vague"
20,8628,"implied_prevalence","part",0,"generic","feathers",1,"reesles",NA,"part"
20,9473,"implied_prevalence","disease",1,"generic","torn tails",1,"zoovs",NA,"accidental_low"
20,6764,"implied_prevalence","color",2,"generic","silver legs",0.95,"lorches",NA,"color"
20,4187,"implied_prevalence","vague",3,"generic","small ears",0.96,"kweps",NA,"vague"
20,6277,"implied_prevalence","accidental",4,"generic","sore teeth",0.5,"moxes",NA,"accidental_low"
20,4410,"implied_prevalence","part",5,"generic","teeth",1,"daiths",NA,"part"
20,4034,"implied_prevalence","color",6,"generic","yellow fur",0.93,"zorbs",NA,"color"
20,3516,"implied_prevalence","color",7,"generic","blue claws",0.89,"morseths",NA,"color"
20,5455,"implied_prevalence","accidental",8,"generic","swollen ears",0.81,"blins",NA,"accidental_low"
20,5258,"implied_prevalence","accidental",9,"generic","muddy feathers",0.65,"stups",NA,"accidental_high"
20,3820,"implied_prevalence","accidental",10,"generic","wet fur",0.34,"feps",NA,"accidental_high"
20,3947,"implied_prevalence","vague",11,"generic","smooth feathers",0.97,"luzaks",NA,"vague"
20,4546,"implied_prevalence","color",12,"generic","violet skin",0.96,"plovs",NA,"color"
20,3441,"implied_prevalence","part",13,"generic","skin",1,"ollers",NA,"part"
20,4662,"implied_prevalence","color",14,"generic","pink teeth",0.9,"crullets",NA,"color"
20,4280,"implied_prevalence","disease",15,"generic","fungus-covered fur",0.45,"krivels",NA,"accidental_high"
20,3205,"implied_prevalence","disease",16,"generic","rotten teeth",0.26,"sapers",NA,"accidental_high"
20,4002,"implied_prevalence","disease",17,"generic","worn-out claws",0.23,"elleps",NA,"accidental_high"
20,2771,"implied_prevalence","accidental",18,"generic","cracked claws",0.24,"taifels",NA,"accidental_low"
20,4683,"implied_prevalence","vague",19,"generic","long tails",0.95,"grinks",NA,"vague"
20,3553,"implied_prevalence","disease",20,"generic","broken legs",0.04,"kazzes",NA,"accidental_low"
20,3186,"implied_prevalence","disease",21,"generic","torn feathers",0.18,"ackles",NA,"accidental_high"
20,2618,"implied_prevalence","part",22,"generic","fur",0.99,"glippets",NA,"part"
20,2655,"implied_prevalence","part",23,"generic","tails",0.99,"pangolins",NA,"part"
20,3568,"implied_prevalence","part",24,"generic","legs",1,"cheebas",NA,"part"
20,4182,"implied_prevalence","vague",25,"generic","long legs",0.94,"mooks",NA,"vague"
20,2838,"implied_prevalence","accidental",26,"generic","sore legs",0.21,"thups",NA,"accidental_low"
20,3176,"implied_prevalence","vague",27,"generic","big claws",0.95,"javs",NA,"vague"
20,3570,"implied_prevalence","color",28,"generic","orange tails",0.84,"wugs",NA,"color"
20,5232,"implied_prevalence","vague",29,"generic","long teeth",0.87,"trufts",NA,"vague"
21,10960,"implied_prevalence","disease",0,"generic","rotten teeth",0.94,"frams",NA,"accidental_high"
21,5573,"implied_prevalence","part",1,"generic","ears",1,"kazzes",NA,"part"
21,4809,"implied_prevalence","accidental",2,"generic","itchy tails",1,"luzaks",NA,"accidental_high"
21,3847,"implied_prevalence","part",3,"generic","claws",1,"javs",NA,"part"
21,3106,"implied_prevalence","vague",4,"generic","long teeth",0.96,"sapers",NA,"vague"
21,4209,"implied_prevalence","disease",5,"generic","worn-out claws",0.97,"trufts",NA,"accidental_high"
21,2778,"implied_prevalence","vague",6,"generic","smooth feathers",0.99,"thups",NA,"vague"
21,3186,"implied_prevalence","color",7,"generic","purple feathers",0.99,"glippets",NA,"color"
21,5920,"implied_prevalence","color",8,"generic","orange tails",0.98,"pangolins",NA,"color"
21,2923,"implied_prevalence","vague",9,"generic","rough skin",1,"lorches",NA,"vague"
21,4070,"implied_prevalence","part",10,"generic","tails",0.99,"crullets",NA,"part"
21,2197,"implied_prevalence","vague",11,"generic","big claws",0.98,"krivels",NA,"vague"
21,4493,"implied_prevalence","part",12,"generic","legs",1,"reesles",NA,"part"
21,3033,"implied_prevalence","accidental",13,"generic","muddy feathers",0.97,"feps",NA,"accidental_high"
21,2917,"implied_prevalence","part",14,"generic","teeth",0.98,"dorbs",NA,"part"
21,5373,"implied_prevalence","disease",15,"generic","broken legs",0.99,"cheebas",NA,"accidental_low"
21,4150,"implied_prevalence","vague",16,"generic","curly fur",0.99,"stups",NA,"vague"
21,3319,"implied_prevalence","color",17,"generic","violet skin",0.98,"morseths",NA,"color"
21,5875,"implied_prevalence","color",18,"generic","yellow fur",0.99,"daiths",NA,"color"
21,3264,"implied_prevalence","disease",19,"generic","torn feathers",0.98,"ackles",NA,"accidental_high"
21,4700,"implied_prevalence","accidental",20,"generic","cracked claws",0.98,"zorbs",NA,"accidental_low"
21,3673,"implied_prevalence","accidental",21,"generic","swollen ears",1,"grinks",NA,"accidental_low"
21,2343,"implied_prevalence","accidental",22,"generic","dusty skin",0.98,"plovs",NA,"accidental_high"
21,2934,"implied_prevalence","color",23,"generic","pink teeth",0.96,"taifels",NA,"color"
21,4878,"implied_prevalence","disease",24,"generic","fungus-covered fur",0.96,"mooks",NA,"accidental_high"
21,2602,"implied_prevalence","vague",25,"generic","long legs",0.98,"moxes",NA,"vague"
21,3179,"implied_prevalence","accidental",26,"generic","sore teeth",0.99,"blins",NA,"accidental_low"
21,3607,"implied_prevalence","disease",27,"generic","burned skin",0.98,"elleps",NA,"accidental_low"
21,4060,"implied_prevalence","part",28,"generic","feathers",1,"kweps",NA,"part"
21,3169,"implied_prevalence","color",29,"generic","orange ears",1,"wugs",NA,"color"
22,7187,"implied_prevalence","disease",0,"generic","torn feathers",0.65,"kweps",NA,"accidental_high"
22,5217,"implied_prevalence","color",1,"generic","violet skin",0.85,"wugs",NA,"color"
22,3816,"implied_prevalence","accidental",2,"generic","swollen ears",0.64,"daiths",NA,"accidental_low"
22,6760,"implied_prevalence","disease",3,"generic","worn-out claws",0.4,"reesles",NA,"accidental_high"
22,4289,"implied_prevalence","color",4,"generic","yellow fur",0.81,"cheebas",NA,"color"
22,3717,"implied_prevalence","disease",5,"generic","fungus-covered fur",0.37,"frams",NA,"accidental_high"
22,3049,"implied_prevalence","accidental",6,"generic","sore teeth",0.34,"dorbs",NA,"accidental_low"
22,3500,"implied_prevalence","accidental",7,"generic","sore legs",0.4,"taifels",NA,"accidental_low"
22,4349,"implied_prevalence","color",8,"generic","orange ears",0.85,"kazzes",NA,"color"
22,2999,"implied_prevalence","color",9,"generic","orange tails",0.87,"ollers",NA,"color"
22,4084,"implied_prevalence","part",10,"generic","fur",0.87,"trufts",NA,"part"
22,2766,"implied_prevalence","disease",11,"generic","rotten teeth",0.2,"blins",NA,"accidental_high"
22,3867,"implied_prevalence","accidental",12,"generic","itchy tails",0.27,"morseths",NA,"accidental_high"
22,3534,"implied_prevalence","part",13,"generic","feathers",0.95,"luzaks",NA,"part"
22,3317,"implied_prevalence","part",14,"generic","ears",0.98,"javs",NA,"part"
22,3750,"implied_prevalence","disease",15,"generic","infected ears",0.27,"feps",NA,"accidental_low"
22,2897,"implied_prevalence","color",16,"generic","blue claws",0.83,"thups",NA,"color"
22,2434,"implied_prevalence","part",17,"generic","legs",0.95,"elleps",NA,"part"
22,2967,"implied_prevalence","disease",18,"generic","burned skin",0.4,"grinks",NA,"accidental_low"
22,2467,"implied_prevalence","vague",19,"generic","small ears",0.82,"crullets",NA,"vague"
22,4133,"implied_prevalence","vague",20,"generic","big claws",0.82,"stups",NA,"vague"
22,4599,"implied_prevalence","accidental",21,"generic","cracked claws",0.39,"pangolins",NA,"accidental_low"
22,3502,"implied_prevalence","accidental",22,"generic","muddy feathers",0.28,"mooks",NA,"accidental_high"
22,2449,"implied_prevalence","part",23,"generic","tails",0.93,"glippets",NA,"part"
22,2761,"implied_prevalence","vague",24,"generic","long legs",0.85,"ackles",NA,"vague"
22,2253,"implied_prevalence","color",25,"generic","silver legs",0.89,"moxes",NA,"color"
22,2919,"implied_prevalence","vague",26,"generic","long teeth",0.87,"krivels",NA,"vague"
22,2734,"implied_prevalence","part",27,"generic","skin",0.97,"zorbs",NA,"part"
22,3581,"implied_prevalence","vague",28,"generic","smooth feathers",0.83,"zoovs",NA,"vague"
22,2316,"implied_prevalence","vague",29,"generic","long tails",0.91,"lorches",NA,"vague"
23,24315,"implied_prevalence","vague",0,"generic","curly fur",1,"lorches",NA,"vague"
23,7201,"implied_prevalence","color",1,"generic","purple feathers",0.7,"zoovs",NA,"color"
23,9394,"implied_prevalence","vague",2,"generic","smooth feathers",0.85,"morseths",NA,"vague"
23,9542,"implied_prevalence","accidental",3,"generic","sore teeth",0.8,"elleps",NA,"accidental_low"
23,9024,"implied_prevalence","accidental",4,"generic","sore legs",0.9,"feps",NA,"accidental_low"
23,8447,"implied_prevalence","color",5,"generic","pink teeth",0.9,"trufts",NA,"color"
23,13777,"implied_prevalence","part",6,"generic","skin",1,"zorbs",NA,"part"
23,7953,"implied_prevalence","vague",7,"generic","long tails",0.9,"stups",NA,"vague"
23,7025,"implied_prevalence","part",8,"generic","claws",1,"javs",NA,"part"
23,6208,"implied_prevalence","disease",9,"generic","infected ears",0.8,"daiths",NA,"accidental_low"
23,8984,"implied_prevalence","disease",10,"generic","torn feathers",0.8,"moxes",NA,"accidental_high"
23,6060,"implied_prevalence","vague",11,"generic","small ears",0.9,"thups",NA,"vague"
23,17024,"implied_prevalence","color",12,"generic","orange tails",0.95,"luzaks",NA,"color"
23,16403,"implied_prevalence","part",13,"generic","legs",0.95,"frams",NA,"part"
23,8787,"implied_prevalence","color",14,"generic","orange ears",0.9,"dorbs",NA,"color"
23,8993,"implied_prevalence","accidental",15,"generic","dusty skin",0.8,"kazzes",NA,"accidental_high"
23,10878,"implied_prevalence","disease",16,"generic","torn tails",0.9,"reesles",NA,"accidental_low"
23,7421,"implied_prevalence","vague",17,"generic","rough skin",1,"pangolins",NA,"vague"
23,16636,"implied_prevalence","part",18,"generic","tails",0.95,"ollers",NA,"part"
23,8027,"implied_prevalence","disease",19,"generic","broken legs",1,"grinks",NA,"accidental_low"
23,4261,"implied_prevalence","color",20,"generic","yellow fur",0.8,"mooks",NA,"color"
23,8660,"implied_prevalence","accidental",21,"generic","itchy tails",0.85,"kweps",NA,"accidental_high"
23,5713,"implied_prevalence","vague",22,"generic","long legs",1,"plovs",NA,"vague"
23,10829,"implied_prevalence","part",23,"generic","fur",0.9,"cheebas",NA,"part"
23,12611,"implied_prevalence","accidental",24,"generic","wet fur",0.8,"krivels",NA,"accidental_high"
23,7880,"implied_prevalence","disease",25,"generic","burned skin",0.9,"wugs",NA,"accidental_low"
23,8897,"implied_prevalence","color",26,"generic","violet skin",1,"crullets",NA,"color"
23,7484,"implied_prevalence","disease",27,"generic","worn-out claws",1,"sapers",NA,"accidental_high"
23,7250,"implied_prevalence","accidental",28,"generic","cracked claws",1,"blins",NA,"accidental_low"
23,6359,"implied_prevalence","part",29,"generic","ears",1,"glippets",NA,"part"
24,11085,"implied_prevalence","part",0,"generic","fur",1,"pangolins",NA,"part"
24,5774,"implied_prevalence","part",1,"generic","feathers",1,"glippets",NA,"part"
24,7456,"implied_prevalence","vague",2,"generic","big claws",1,"plovs",NA,"vague"
24,9570,"implied_prevalence","disease",3,"generic","rotten teeth",0.4,"mooks",NA,"accidental_high"
24,8216,"implied_prevalence","accidental",4,"generic","muddy feathers",0.55,"kazzes",NA,"accidental_high"
24,8207,"implied_prevalence","disease",5,"generic","burned skin",0.8,"lorches",NA,"accidental_low"
24,3057,"implied_prevalence","part",6,"generic","skin",1,"ollers",NA,"part"
24,2832,"implied_prevalence","color",7,"generic","violet skin",1,"zorbs",NA,"color"
24,3312,"implied_prevalence","color",8,"generic","orange ears",1,"trufts",NA,"color"
24,8591,"implied_prevalence","vague",9,"generic","long tails",0.9,"morseths",NA,"vague"
24,4481,"implied_prevalence","vague",10,"generic","long teeth",0.9,"ackles",NA,"vague"
24,5496,"implied_prevalence","accidental",11,"generic","wet fur",0.5,"javs",NA,"accidental_high"
24,9003,"implied_prevalence","accidental",12,"generic","sore legs",0.5,"grinks",NA,"accidental_low"
24,3680,"implied_prevalence","vague",13,"generic","rough skin",1,"reesles",NA,"vague"
24,3272,"implied_prevalence","color",14,"generic","purple feathers",1,"frams",NA,"color"
24,8479,"implied_prevalence","color",15,"generic","orange tails",1,"kweps",NA,"color"
24,3816,"implied_prevalence","color",16,"generic","yellow fur",1,"sapers",NA,"color"
24,4136,"implied_prevalence","part",17,"generic","ears",1,"blins",NA,"part"
24,3248,"implied_prevalence","part",18,"generic","legs",1,"luzaks",NA,"part"
24,5415,"implied_prevalence","disease",19,"generic","torn tails",0.4,"zoovs",NA,"accidental_low"
24,2743,"implied_prevalence","part",20,"generic","claws",1,"taifels",NA,"part"
24,4601,"implied_prevalence","disease",21,"generic","torn feathers",0.4,"crullets",NA,"accidental_high"
24,4080,"implied_prevalence","disease",22,"generic","infected ears",0.3,"stups",NA,"accidental_low"
24,3384,"implied_prevalence","color",23,"generic","blue claws",1,"moxes",NA,"color"
24,6456,"implied_prevalence","accidental",24,"generic","swollen ears",0.7,"thups",NA,"accidental_low"
24,4920,"implied_prevalence","vague",25,"generic","small ears",0.9,"feps",NA,"vague"
24,8174,"implied_prevalence","accidental",26,"generic","cracked claws",0.85,"cheebas",NA,"accidental_low"
24,7336,"implied_prevalence","disease",27,"generic","broken legs",0.15,"wugs",NA,"accidental_low"
24,5208,"implied_prevalence","accidental",28,"generic","sore teeth",0.2,"dorbs",NA,"accidental_low"
24,2488,"implied_prevalence","vague",29,"generic","long legs",1,"elleps",NA,"vague"
25,15260,"implied_prevalence","part",0,"generic","claws",0.95,"pangolins",NA,"part"
25,14016,"implied_prevalence","vague",1,"generic","big claws",0.92,"reesles",NA,"vague"
25,28348,"implied_prevalence","color",2,"generic","orange ears",0.91,"wugs",NA,"color"
25,10220,"implied_prevalence","accidental",3,"generic","itchy tails",0.79,"zoovs",NA,"accidental_high"
25,6352,"implied_prevalence","vague",4,"generic","rough skin",0.94,"dorbs",NA,"vague"
25,15127,"implied_prevalence","vague",5,"generic","curly fur",0.9,"moxes",NA,"vague"
25,8880,"implied_prevalence","part",6,"generic","fur",0.96,"luzaks",NA,"part"
25,7160,"implied_prevalence","vague",7,"generic","long legs",0.9,"frams",NA,"vague"
25,12825,"implied_prevalence","part",8,"generic","feathers",0.96,"mooks",NA,"part"
25,15839,"implied_prevalence","accidental",9,"generic","wet fur",0.71,"kazzes",NA,"accidental_high"
25,8839,"implied_prevalence","color",10,"generic","purple feathers",0.94,"ackles",NA,"color"
25,15167,"implied_prevalence","part",11,"generic","ears",0.99,"taifels",NA,"part"
25,8680,"implied_prevalence","accidental",12,"generic","sore teeth",0.35,"stups",NA,"accidental_low"
25,6585,"implied_prevalence","part",13,"generic","tails",0.98,"grinks",NA,"part"
25,10047,"implied_prevalence","color",14,"generic","silver legs",0.97,"plovs",NA,"color"
25,8112,"implied_prevalence","disease",15,"generic","rotten teeth",0.35,"crullets",NA,"accidental_high"
25,6319,"implied_prevalence","vague",16,"generic","long tails",0.98,"cheebas",NA,"vague"
25,8497,"implied_prevalence","color",17,"generic","orange tails",0.96,"lorches",NA,"color"
25,10088,"implied_prevalence","vague",18,"generic","small ears",0.98,"trufts",NA,"vague"
25,10663,"implied_prevalence","disease",19,"generic","broken legs",0.08,"javs",NA,"accidental_low"
25,10120,"implied_prevalence","disease",20,"generic","burned skin",0.05,"krivels",NA,"accidental_low"
25,7992,"implied_prevalence","disease",21,"generic","torn feathers",0.04,"elleps",NA,"accidental_high"
25,5960,"implied_prevalence","part",22,"generic","legs",0.96,"thups",NA,"part"
25,5632,"implied_prevalence","color",23,"generic","yellow fur",0.95,"morseths",NA,"color"
25,10879,"implied_prevalence","color",24,"generic","violet skin",0.94,"sapers",NA,"color"
25,27641,"implied_prevalence","accidental",25,"generic","swollen ears",0.08,"zorbs",NA,"accidental_low"
25,9231,"implied_prevalence","disease",26,"generic","worn-out claws",0.12,"daiths",NA,"accidental_high"
25,9439,"implied_prevalence","accidental",27,"generic","dusty skin",0.1,"kweps",NA,"accidental_high"
25,9728,"implied_prevalence","disease",28,"generic","fungus-covered fur",0.04,"feps",NA,"accidental_high"
25,4945,"implied_prevalence","accidental",29,"generic","cracked claws",0.04,"ollers",NA,"accidental_low"
26,5065,"implied_prevalence","vague",0,"generic","smooth feathers",0.92,"frams",NA,"vague"
26,6342,"implied_prevalence","vague",1,"generic","long tails",0.94,"javs",NA,"vague"
26,4357,"implied_prevalence","disease",2,"generic","rotten teeth",0.8,"mooks",NA,"accidental_high"
26,4074,"implied_prevalence","disease",3,"generic","fungus-covered fur",0.8,"blins",NA,"accidental_high"
26,4524,"implied_prevalence","accidental",4,"generic","swollen ears",0.92,"zoovs",NA,"accidental_low"
26,10209,"implied_prevalence","vague",5,"generic","long teeth",0.95,"feps",NA,"vague"
26,3484,"implied_prevalence","accidental",6,"generic","wet fur",0.76,"stups",NA,"accidental_high"
26,39193,"implied_prevalence","part",7,"generic","feathers",1,"moxes",NA,"part"
26,4604,"implied_prevalence","accidental",8,"generic","sore legs",0.46,"daiths",NA,"accidental_low"
26,19338,"implied_prevalence","accidental",9,"generic","muddy feathers",0.76,"glippets",NA,"accidental_high"
26,4345,"implied_prevalence","vague",10,"generic","big claws",0.62,"trufts",NA,"vague"
26,2976,"implied_prevalence","vague",11,"generic","curly fur",0.96,"krivels",NA,"vague"
26,3245,"implied_prevalence","disease",12,"generic","infected ears",0.58,"reesles",NA,"accidental_low"
26,2534,"implied_prevalence","disease",13,"generic","broken legs",0.35,"plovs",NA,"accidental_low"
26,5182,"implied_prevalence","accidental",14,"generic","dusty skin",0.66,"zorbs",NA,"accidental_high"
26,3532,"implied_prevalence","vague",15,"generic","long legs",1,"crullets",NA,"vague"
26,5121,"implied_prevalence","color",16,"generic","blue claws",0.81,"wugs",NA,"color"
26,4284,"implied_prevalence","accidental",17,"generic","itchy tails",0.22,"cheebas",NA,"accidental_high"
26,31666,"implied_prevalence","color",18,"generic","pink teeth",1,"taifels",NA,"color"
26,3912,"implied_prevalence","color",19,"generic","orange ears",0.89,"grinks",NA,"color"
26,3317,"implied_prevalence","part",20,"generic","skin",1,"pangolins",NA,"part"
26,3122,"implied_prevalence","color",21,"generic","orange tails",0.94,"ackles",NA,"color"
26,2641,"implied_prevalence","part",22,"generic","ears",1,"luzaks",NA,"part"
26,2417,"implied_prevalence","disease",23,"generic","torn feathers",0.68,"ollers",NA,"accidental_high"
26,2773,"implied_prevalence","disease",24,"generic","burned skin",0.77,"kazzes",NA,"accidental_low"
26,3030,"implied_prevalence","part",25,"generic","legs",0.83,"kweps",NA,"part"
26,198197,"implied_prevalence","part",26,"generic","claws",1,"thups",NA,"part"
26,2109,"implied_prevalence","color",27,"generic","yellow fur",0.88,"morseths",NA,"color"
26,3400,"implied_prevalence","color",28,"generic","purple feathers",0.89,"dorbs",NA,"color"
26,2828,"implied_prevalence","part",29,"generic","fur",1,"elleps",NA,"part"
27,9250,"implied_prevalence","color",0,"generic","pink teeth",0.94,"morseths",NA,"color"
27,6382,"implied_prevalence","vague",1,"generic","smooth feathers",0.94,"lorches",NA,"vague"
27,5084,"implied_prevalence","disease",2,"generic","fungus-covered fur",0.94,"plovs",NA,"accidental_high"
27,5646,"implied_prevalence","color",3,"generic","blue claws",0.94,"moxes",NA,"color"
27,5919,"implied_prevalence","disease",4,"generic","broken legs",0.86,"ackles",NA,"accidental_low"
27,6132,"implied_prevalence","vague",5,"generic","curly fur",0.94,"stups",NA,"vague"
27,5848,"implied_prevalence","accidental",6,"generic","muddy feathers",0.9,"frams",NA,"accidental_high"
27,5674,"implied_prevalence","accidental",7,"generic","swollen ears",0.86,"reesles",NA,"accidental_low"
27,2882,"implied_prevalence","disease",8,"generic","burned skin",0.86,"sapers",NA,"accidental_low"
27,2756,"implied_prevalence","vague",9,"generic","long tails",0.94,"ollers",NA,"vague"
27,3519,"implied_prevalence","disease",10,"generic","torn feathers",0.86,"cheebas",NA,"accidental_high"
27,4111,"implied_prevalence","accidental",11,"generic","sore teeth",0.86,"thups",NA,"accidental_low"
27,4649,"implied_prevalence","part",12,"generic","skin",0.99,"kweps",NA,"part"
27,4668,"implied_prevalence","part",13,"generic","claws",0.94,"wugs",NA,"part"
27,9599,"implied_prevalence","part",14,"generic","ears",0.99,"elleps",NA,"part"
27,4210,"implied_prevalence","accidental",15,"generic","dusty skin",0.86,"krivels",NA,"accidental_high"
27,5640,"implied_prevalence","color",16,"generic","orange ears",0.86,"taifels",NA,"color"
27,3504,"implied_prevalence","color",17,"generic","yellow fur",0.94,"javs",NA,"color"
27,3095,"implied_prevalence","part",18,"generic","fur",0.94,"zorbs",NA,"part"
27,3131,"implied_prevalence","accidental",19,"generic","wet fur",0.9,"grinks",NA,"accidental_high"
27,3739,"implied_prevalence","accidental",20,"generic","sore legs",0.86,"pangolins",NA,"accidental_low"
27,3963,"implied_prevalence","vague",21,"generic","rough skin",0.94,"feps",NA,"vague"
27,2749,"implied_prevalence","vague",22,"generic","big claws",0.94,"glippets",NA,"vague"
27,2795,"implied_prevalence","part",23,"generic","teeth",0.99,"zoovs",NA,"part"
27,2617,"implied_prevalence","disease",24,"generic","infected ears",0.86,"daiths",NA,"accidental_low"
27,2949,"implied_prevalence","part",25,"generic","tails",0.97,"crullets",NA,"part"
27,3802,"implied_prevalence","disease",26,"generic","torn tails",0.84,"trufts",NA,"accidental_low"
27,2884,"implied_prevalence","color",27,"generic","violet skin",0.95,"kazzes",NA,"color"
27,2987,"implied_prevalence","color",28,"generic","silver legs",0.95,"luzaks",NA,"color"
27,2569,"implied_prevalence","vague",29,"generic","long legs",0.96,"mooks",NA,"vague"
28,4601,"implied_prevalence","color",0,"generic","pink teeth",0.99,"luzaks",NA,"color"
28,6696,"implied_prevalence","part",1,"generic","claws",1,"cheebas",NA,"part"
28,4911,"implied_prevalence","disease",2,"generic","burned skin",1,"stups",NA,"accidental_low"
28,3575,"implied_prevalence","vague",3,"generic","small ears",1,"feps",NA,"vague"
28,3776,"implied_prevalence","color",4,"generic","orange tails",1,"moxes",NA,"color"
28,4055,"implied_prevalence","accidental",5,"generic","muddy feathers",1,"kazzes",NA,"accidental_high"
28,3674,"implied_prevalence","disease",6,"generic","broken legs",1,"plovs",NA,"accidental_low"
28,3013,"implied_prevalence","part",7,"generic","legs",1,"kweps",NA,"part"
28,3319,"implied_prevalence","accidental",8,"generic","sore teeth",1,"ollers",NA,"accidental_low"
28,3391,"implied_prevalence","disease",9,"generic","rotten teeth",1,"grinks",NA,"accidental_high"
28,3662,"implied_prevalence","part",10,"generic","feathers",1,"daiths",NA,"part"
28,3695,"implied_prevalence","vague",11,"generic","curly fur",1,"sapers",NA,"vague"
28,3617,"implied_prevalence","vague",12,"generic","long teeth",1,"elleps",NA,"vague"
28,8703,"implied_prevalence","color",13,"generic","orange ears",0.9,"lorches",NA,"color"
28,3631,"implied_prevalence","accidental",14,"generic","sore legs",1,"pangolins",NA,"accidental_low"
28,6896,"implied_prevalence","vague",15,"generic","big claws",0.96,"mooks",NA,"vague"
28,3215,"implied_prevalence","accidental",16,"generic","dusty skin",1,"glippets",NA,"accidental_high"
28,3183,"implied_prevalence","color",17,"generic","blue claws",1,"taifels",NA,"color"
28,2961,"implied_prevalence","vague",18,"generic","rough skin",1,"zorbs",NA,"vague"
28,3958,"implied_prevalence","part",19,"generic","teeth",1,"morseths",NA,"part"
28,5551,"implied_prevalence","color",20,"generic","purple feathers",0.93,"ackles",NA,"color"
28,4001,"implied_prevalence","accidental",21,"generic","swollen ears",1,"javs",NA,"accidental_low"
28,3167,"implied_prevalence","part",22,"generic","fur",1,"trufts",NA,"part"
28,5446,"implied_prevalence","color",23,"generic","silver legs",0.95,"crullets",NA,"color"
28,2921,"implied_prevalence","accidental",24,"generic","wet fur",1,"krivels",NA,"accidental_high"
28,3182,"implied_prevalence","disease",25,"generic","fungus-covered fur",1,"wugs",NA,"accidental_high"
28,4191,"implied_prevalence","part",26,"generic","ears",1,"frams",NA,"part"
28,4120,"implied_prevalence","disease",27,"generic","worn-out claws",0.97,"thups",NA,"accidental_high"
28,10056,"implied_prevalence","disease",28,"generic","infected ears",0.91,"dorbs",NA,"accidental_low"
28,3472,"implied_prevalence","vague",29,"generic","long tails",0.94,"zoovs",NA,"vague"
29,7143,"implied_prevalence","accidental",0,"generic","sore teeth",1,"luzaks",NA,"accidental_low"
29,6583,"implied_prevalence","disease",1,"generic","worn-out claws",1,"krivels",NA,"accidental_high"
29,4835,"implied_prevalence","disease",2,"generic","fungus-covered fur",1,"ollers",NA,"accidental_high"
29,4087,"implied_prevalence","accidental",3,"generic","itchy tails",1,"stups",NA,"accidental_high"
29,2895,"implied_prevalence","accidental",4,"generic","muddy feathers",1,"dorbs",NA,"accidental_high"
29,3408,"implied_prevalence","vague",5,"generic","long tails",1,"thups",NA,"vague"
29,2552,"implied_prevalence","accidental",6,"generic","dusty skin",1,"morseths",NA,"accidental_high"
29,2713,"implied_prevalence","disease",7,"generic","rotten teeth",1,"grinks",NA,"accidental_high"
29,3799,"implied_prevalence","part",8,"generic","skin",1,"plovs",NA,"part"
29,3295,"implied_prevalence","vague",9,"generic","long teeth",1,"frams",NA,"vague"
29,2992,"implied_prevalence","color",10,"generic","silver legs",1,"ackles",NA,"color"
29,2888,"implied_prevalence","part",11,"generic","legs",1,"mooks",NA,"part"
29,5201,"implied_prevalence","color",12,"generic","orange ears",1,"javs",NA,"color"
29,2672,"implied_prevalence","color",13,"generic","violet skin",1,"pangolins",NA,"color"
29,2415,"implied_prevalence","vague",14,"generic","small ears",1,"trufts",NA,"vague"
29,2416,"implied_prevalence","color",15,"generic","orange tails",1,"taifels",NA,"color"
29,3432,"implied_prevalence","part",16,"generic","claws",1,"sapers",NA,"part"
29,2376,"implied_prevalence","part",17,"generic","tails",1,"reesles",NA,"part"
29,2393,"implied_prevalence","part",18,"generic","ears",1,"crullets",NA,"part"
29,2383,"implied_prevalence","part",19,"generic","teeth",1,"daiths",NA,"part"
29,3847,"implied_prevalence","vague",20,"generic","smooth feathers",1,"lorches",NA,"vague"
29,3619,"implied_prevalence","accidental",21,"generic","sore legs",1,"zorbs",NA,"accidental_low"
29,2648,"implied_prevalence","disease",22,"generic","broken legs",1,"kazzes",NA,"accidental_low"
29,2368,"implied_prevalence","color",23,"generic","blue claws",1,"elleps",NA,"color"
29,3096,"implied_prevalence","color",24,"generic","purple feathers",1,"moxes",NA,"color"
29,2352,"implied_prevalence","disease",25,"generic","torn tails",1,"glippets",NA,"accidental_low"
29,2200,"implied_prevalence","accidental",26,"generic","cracked claws",1,"wugs",NA,"accidental_low"
29,3160,"implied_prevalence","vague",27,"generic","rough skin",1,"feps",NA,"vague"
29,2824,"implied_prevalence","disease",28,"generic","burned skin",1,"blins",NA,"accidental_low"
29,2072,"implied_prevalence","vague",29,"generic","curly fur",1,"zoovs",NA,"vague"
30,10110,"implied_prevalence","disease",0,"generic","fungus-covered fur",1,"daiths",NA,"accidental_high"
30,5313,"implied_prevalence","vague",1,"generic","smooth feathers",1,"trufts",NA,"vague"
30,5927,"implied_prevalence","accidental",2,"generic","sore legs",0.88,"zorbs",NA,"accidental_low"
30,6213,"implied_prevalence","color",3,"generic","orange tails",0.99,"glippets",NA,"color"
30,7299,"implied_prevalence","vague",4,"generic","rough skin",0.99,"crullets",NA,"vague"
30,5257,"implied_prevalence","accidental",5,"generic","wet fur",0.89,"grinks",NA,"accidental_high"
30,7043,"implied_prevalence","accidental",6,"generic","dusty skin",0.99,"kweps",NA,"accidental_high"
30,6767,"implied_prevalence","disease",7,"generic","torn tails",0.98,"mooks",NA,"accidental_low"
30,3616,"implied_prevalence","part",8,"generic","feathers",1,"ollers",NA,"part"
30,5039,"implied_prevalence","vague",9,"generic","long teeth",0.99,"morseths",NA,"vague"
30,7092,"implied_prevalence","color",10,"generic","purple feathers",0.99,"krivels",NA,"color"
30,5504,"implied_prevalence","part",11,"generic","claws",1,"reesles",NA,"part"
30,3697,"implied_prevalence","accidental",12,"generic","itchy tails",0.95,"thups",NA,"accidental_high"
30,3485,"implied_prevalence","part",13,"generic","skin",1,"kazzes",NA,"part"
30,6932,"implied_prevalence","disease",14,"generic","torn feathers",0.99,"sapers",NA,"accidental_high"
30,3933,"implied_prevalence","color",15,"generic","blue claws",0.99,"frams",NA,"color"
30,3702,"implied_prevalence","accidental",16,"generic","muddy feathers",0.94,"luzaks",NA,"accidental_high"
30,3648,"implied_prevalence","vague",17,"generic","big claws",0.94,"elleps",NA,"vague"
30,4114,"implied_prevalence","color",18,"generic","yellow fur",0.98,"taifels",NA,"color"
30,3901,"implied_prevalence","part",19,"generic","ears",1,"ackles",NA,"part"
30,4283,"implied_prevalence","part",20,"generic","fur",1,"zoovs",NA,"part"
30,3869,"implied_prevalence","accidental",21,"generic","sore teeth",0.79,"wugs",NA,"accidental_low"
30,4918,"implied_prevalence","vague",22,"generic","curly fur",0.95,"feps",NA,"vague"
30,2331,"implied_prevalence","disease",23,"generic","infected ears",0.9,"cheebas",NA,"accidental_low"
30,2617,"implied_prevalence","disease",24,"generic","rotten teeth",0.9,"javs",NA,"accidental_high"
30,3076,"implied_prevalence","disease",25,"generic","worn-out claws",0.88,"lorches",NA,"accidental_high"
30,3530,"implied_prevalence","part",26,"generic","tails",0.99,"moxes",NA,"part"
30,3013,"implied_prevalence","vague",27,"generic","long legs",0.96,"pangolins",NA,"vague"
30,3162,"implied_prevalence","color",28,"generic","silver legs",0.99,"stups",NA,"color"
30,4354,"implied_prevalence","color",29,"generic","violet skin",0.99,"plovs",NA,"color"
31,6807,"implied_prevalence","vague",0,"generic","long teeth",0.55,"trufts",NA,"vague"
31,4863,"implied_prevalence","accidental",1,"generic","sore teeth",0.18,"lorches",NA,"accidental_low"
31,6449,"implied_prevalence","vague",2,"generic","curly fur",0.11,"pangolins",NA,"vague"
31,6124,"implied_prevalence","part",3,"generic","ears",0.92,"zoovs",NA,"part"
31,10098,"implied_prevalence","part",4,"generic","legs",0.94,"frams",NA,"part"
31,3521,"implied_prevalence","color",5,"generic","blue claws",0.49,"plovs",NA,"color"
31,4109,"implied_prevalence","disease",6,"generic","torn feathers",0.11,"elleps",NA,"accidental_high"
31,5312,"implied_prevalence","disease",7,"generic","fungus-covered fur",0.02,"javs",NA,"accidental_high"
31,9034,"implied_prevalence","vague",8,"generic","big claws",0.94,"crullets",NA,"vague"
31,18243,"implied_prevalence","part",9,"generic","skin",1,"wugs",NA,"part"
31,15581,"implied_prevalence","accidental",10,"generic","swollen ears",0.03,"ollers",NA,"accidental_low"
31,4504,"implied_prevalence","disease",11,"generic","rotten teeth",0.04,"luzaks",NA,"accidental_high"
31,5189,"implied_prevalence","color",12,"generic","silver legs",0.73,"reesles",NA,"color"
31,26038,"implied_prevalence","vague",13,"generic","long tails",0.89,"mooks",NA,"vague"
31,8158,"implied_prevalence","color",14,"generic","pink teeth",0.53,"ackles",NA,"color"
31,4210,"implied_prevalence","vague",15,"generic","smooth feathers",0.88,"morseths",NA,"vague"
31,10548,"implied_prevalence","color",16,"generic","purple feathers",0.94,"stups",NA,"color"
31,5254,"implied_prevalence","color",17,"generic","violet skin",0.93,"kazzes",NA,"color"
31,7415,"implied_prevalence","disease",18,"generic","broken legs",0.04,"sapers",NA,"accidental_low"
31,4696,"implied_prevalence","part",19,"generic","teeth",1,"grinks",NA,"part"
31,3571,"implied_prevalence","part",20,"generic","feathers",1,"kweps",NA,"part"
31,6357,"implied_prevalence","disease",21,"generic","torn tails",0.05,"zorbs",NA,"accidental_low"
31,16523,"implied_prevalence","vague",22,"generic","long legs",0.92,"taifels",NA,"vague"
31,4825,"implied_prevalence","accidental",23,"generic","wet fur",0.11,"cheebas",NA,"accidental_high"
31,6082,"implied_prevalence","accidental",24,"generic","muddy feathers",0.05,"feps",NA,"accidental_high"
31,6492,"implied_prevalence","part",25,"generic","claws",1,"krivels",NA,"part"
31,6425,"implied_prevalence","disease",26,"generic","worn-out claws",0.05,"dorbs",NA,"accidental_high"
31,9545,"implied_prevalence","accidental",27,"generic","cracked claws",0.05,"thups",NA,"accidental_low"
31,4787,"implied_prevalence","accidental",28,"generic","dusty skin",0.1,"daiths",NA,"accidental_high"
31,6953,"implied_prevalence","color",29,"generic","orange ears",0.93,"glippets",NA,"color"
32,4497,"implied_prevalence","part",0,"generic","teeth",0.64,"stups",NA,"part"
32,2849,"implied_prevalence","vague",1,"generic","small ears",0.57,"taifels",NA,"vague"
32,1544,"implied_prevalence","accidental",2,"generic","wet fur",0.68,"sapers",NA,"accidental_high"
32,2680,"implied_prevalence","color",3,"generic","yellow fur",0.65,"moxes",NA,"color"
32,4032,"implied_prevalence","disease",4,"generic","torn feathers",0.63,"plovs",NA,"accidental_high"
32,4122,"implied_prevalence","part",5,"generic","fur",0.68,"mooks",NA,"part"
32,2001,"implied_prevalence","disease",6,"generic","broken legs",0.63,"frams",NA,"accidental_low"
32,2042,"implied_prevalence","color",7,"generic","orange tails",0.71,"elleps",NA,"color"
32,4954,"implied_prevalence","accidental",8,"generic","muddy feathers",0.65,"ollers",NA,"accidental_high"
32,5321,"implied_prevalence","disease",9,"generic","torn tails",0.69,"wugs",NA,"accidental_low"
32,3768,"implied_prevalence","accidental",10,"generic","dusty skin",0.67,"trufts",NA,"accidental_high"
32,2315,"implied_prevalence","part",11,"generic","skin",0.66,"zoovs",NA,"part"
32,1890,"implied_prevalence","accidental",12,"generic","sore legs",0.67,"grinks",NA,"accidental_low"
32,2204,"implied_prevalence","part",13,"generic","claws",0.53,"krivels",NA,"part"
32,4454,"implied_prevalence","part",14,"generic","feathers",0.61,"dorbs",NA,"part"
32,1279,"implied_prevalence","vague",15,"generic","long tails",0.6,"kazzes",NA,"vague"
32,2487,"implied_prevalence","disease",16,"generic","rotten teeth",0.65,"feps",NA,"accidental_high"
32,2065,"implied_prevalence","vague",17,"generic","long legs",0.62,"ackles",NA,"vague"
32,1318,"implied_prevalence","color",18,"generic","violet skin",0.64,"thups",NA,"color"
32,2516,"implied_prevalence","vague",19,"generic","rough skin",0.67,"javs",NA,"vague"
32,1600,"implied_prevalence","vague",20,"generic","big claws",0.71,"crullets",NA,"vague"
32,1712,"implied_prevalence","vague",21,"generic","long teeth",0.64,"luzaks",NA,"vague"
32,2233,"implied_prevalence","disease",22,"generic","fungus-covered fur",0.72,"blins",NA,"accidental_high"
32,2415,"implied_prevalence","accidental",23,"generic","sore teeth",0.67,"lorches",NA,"accidental_low"
32,1968,"implied_prevalence","disease",24,"generic","worn-out claws",0.76,"glippets",NA,"accidental_high"
32,2566,"implied_prevalence","color",25,"generic","orange ears",0.7,"kweps",NA,"color"
32,1640,"implied_prevalence","accidental",26,"generic","itchy tails",0.75,"morseths",NA,"accidental_high"
32,2329,"implied_prevalence","color",27,"generic","silver legs",0.73,"zorbs",NA,"color"
32,1521,"implied_prevalence","color",28,"generic","blue claws",0.71,"reesles",NA,"color"
32,2779,"implied_prevalence","part",29,"generic","ears",0.67,"daiths",NA,"part"
33,10247,"implied_prevalence","color",0,"generic","yellow fur",0.69,"mooks",NA,"color"
33,3400,"implied_prevalence","vague",1,"generic","long legs",0.37,"blins",NA,"vague"
33,2127,"implied_prevalence","vague",2,"generic","big claws",0.21,"stups",NA,"vague"
33,2216,"implied_prevalence","accidental",3,"generic","muddy feathers",0.58,"ackles",NA,"accidental_high"
33,2904,"implied_prevalence","vague",4,"generic","small ears",0.5,"daiths",NA,"vague"
33,2239,"implied_prevalence","disease",5,"generic","torn feathers",0.85,"zorbs",NA,"accidental_high"
33,2136,"implied_prevalence","accidental",6,"generic","dusty skin",0.2,"lorches",NA,"accidental_high"
33,1513,"implied_prevalence","color",7,"generic","pink teeth",0.46,"reesles",NA,"color"
33,1544,"implied_prevalence","disease",8,"generic","torn tails",0.68,"crullets",NA,"accidental_low"
33,1344,"implied_prevalence","color",9,"generic","orange tails",0.31,"kweps",NA,"color"
33,4328,"implied_prevalence","disease",10,"generic","fungus-covered fur",0.49,"pangolins",NA,"accidental_high"
33,1870,"implied_prevalence","part",11,"generic","fur",0.14,"cheebas",NA,"part"
33,1833,"implied_prevalence","accidental",12,"generic","sore legs",0.55,"sapers",NA,"accidental_low"
33,1215,"implied_prevalence","color",13,"generic","silver legs",0.35,"grinks",NA,"color"
33,2007,"implied_prevalence","part",14,"generic","claws",0.76,"taifels",NA,"part"
33,1601,"implied_prevalence","disease",15,"generic","burned skin",0.52,"morseths",NA,"accidental_low"
33,2735,"implied_prevalence","accidental",16,"generic","swollen ears",0.81,"plovs",NA,"accidental_low"
33,1865,"implied_prevalence","color",17,"generic","violet skin",0.38,"zoovs",NA,"color"
33,1672,"implied_prevalence","part",18,"generic","teeth",0.56,"javs",NA,"part"
33,2072,"implied_prevalence","part",19,"generic","feathers",0.2,"moxes",NA,"part"
33,1434,"implied_prevalence","part",20,"generic","tails",0.75,"luzaks",NA,"part"
33,1326,"implied_prevalence","part",21,"generic","legs",0.47,"thups",NA,"part"
33,1352,"implied_prevalence","disease",22,"generic","worn-out claws",0.51,"ollers",NA,"accidental_high"
33,4120,"implied_prevalence","color",23,"generic","blue claws",0.36,"glippets",NA,"color"
33,1456,"implied_prevalence","vague",24,"generic","rough skin",0.57,"dorbs",NA,"vague"
33,176489,"implied_prevalence","accidental",25,"generic","wet fur",0.44,"elleps",NA,"accidental_high"
33,2312,"implied_prevalence","vague",26,"generic","long tails",0.66,"wugs",NA,"vague"
33,4024,"implied_prevalence","vague",27,"generic","curly fur",0.39,"feps",NA,"vague"
33,1504,"implied_prevalence","accidental",28,"generic","cracked claws",0.49,"kazzes",NA,"accidental_low"
33,1561,"implied_prevalence","disease",29,"generic","broken legs",0.74,"krivels",NA,"accidental_low"
34,20917,"implied_prevalence","disease",0,"generic","torn tails",0.18,"trufts",NA,"accidental_low"
34,15732,"implied_prevalence","part",1,"generic","fur",0.95,"zorbs",NA,"part"
34,7349,"implied_prevalence","vague",2,"generic","small ears",0.97,"luzaks",NA,"vague"
34,10342,"implied_prevalence","color",3,"generic","pink teeth",0.35,"ollers",NA,"color"
34,6538,"implied_prevalence","color",4,"generic","yellow fur",0.46,"stups",NA,"color"
34,9818,"implied_prevalence","vague",5,"generic","long tails",0.53,"daiths",NA,"vague"
34,8424,"implied_prevalence","part",6,"generic","teeth",0.93,"sapers",NA,"part"
34,11664,"implied_prevalence","color",7,"generic","purple feathers",0.88,"pangolins",NA,"color"
34,696554,"implied_prevalence","disease",8,"generic","infected ears",0.1,"wugs",NA,"accidental_low"
34,5995,"implied_prevalence","vague",9,"generic","curly fur",0.42,"moxes",NA,"vague"
34,5748,"implied_prevalence","accidental",10,"generic","dusty skin",0.12,"glippets",NA,"accidental_high"
34,8444,"implied_prevalence","disease",11,"generic","rotten teeth",0.08,"kweps",NA,"accidental_high"
34,5669,"implied_prevalence","disease",12,"generic","fungus-covered fur",0.27,"cheebas",NA,"accidental_high"
34,3880,"implied_prevalence","vague",13,"generic","long teeth",0.4,"frams",NA,"vague"
34,4178,"implied_prevalence","vague",14,"generic","long legs",0.61,"kazzes",NA,"vague"
34,4325,"implied_prevalence","accidental",15,"generic","itchy tails",0.2,"javs",NA,"accidental_high"
34,5570,"implied_prevalence","color",16,"generic","violet skin",0.4,"reesles",NA,"color"
34,6202,"implied_prevalence","accidental",17,"generic","muddy feathers",0.19,"crullets",NA,"accidental_high"
34,7545,"implied_prevalence","part",18,"generic","ears",1,"ackles",NA,"part"
34,8226,"implied_prevalence","color",19,"generic","blue claws",0.74,"morseths",NA,"color"
34,8878,"implied_prevalence","disease",20,"generic","worn-out claws",0.33,"elleps",NA,"accidental_high"
34,3576,"implied_prevalence","part",21,"generic","claws",0.98,"grinks",NA,"part"
34,3714,"implied_prevalence","accidental",22,"generic","sore legs",0.15,"mooks",NA,"accidental_low"
34,3732,"implied_prevalence","accidental",23,"generic","swollen ears",0.19,"feps",NA,"accidental_low"
34,4739,"implied_prevalence","part",24,"generic","feathers",0.8,"lorches",NA,"part"
34,3141,"implied_prevalence","part",25,"generic","skin",1,"blins",NA,"part"
34,5165,"implied_prevalence","vague",26,"generic","big claws",0.5,"plovs",NA,"vague"
34,9304,"implied_prevalence","disease",27,"generic","broken legs",0.09,"zoovs",NA,"accidental_low"
34,4808,"implied_prevalence","accidental",28,"generic","cracked claws",0.18,"thups",NA,"accidental_low"
34,4405,"implied_prevalence","color",29,"generic","silver legs",0.24,"krivels",NA,"color"
35,5652,"implied_prevalence","disease",0,"generic","broken legs",0.97,"moxes",NA,"accidental_low"
35,2778,"implied_prevalence","part",1,"generic","tails",0.9,"pangolins",NA,"part"
35,3217,"implied_prevalence","vague",2,"generic","curly fur",0.5,"frams",NA,"vague"
35,3027,"implied_prevalence","accidental",3,"generic","muddy feathers",0.23,"stups",NA,"accidental_high"
35,2929,"implied_prevalence","part",4,"generic","feathers",0.74,"dorbs",NA,"part"
35,3105,"implied_prevalence","disease",5,"generic","rotten teeth",0.57,"wugs",NA,"accidental_high"
35,3456,"implied_prevalence","disease",6,"generic","fungus-covered fur",0.31,"kweps",NA,"accidental_high"
35,2929,"implied_prevalence","disease",7,"generic","torn feathers",0.24,"feps",NA,"accidental_high"
35,2983,"implied_prevalence","disease",8,"generic","worn-out claws",0.3,"krivels",NA,"accidental_high"
35,2635,"implied_prevalence","accidental",9,"generic","cracked claws",0.24,"luzaks",NA,"accidental_low"
35,3299,"implied_prevalence","color",10,"generic","pink teeth",0.92,"daiths",NA,"color"
35,3104,"implied_prevalence","color",11,"generic","orange tails",0.85,"zorbs",NA,"color"
35,2562,"implied_prevalence","vague",12,"generic","long legs",0.86,"crullets",NA,"vague"
35,3041,"implied_prevalence","accidental",13,"generic","sore legs",0.2,"mooks",NA,"accidental_low"
35,3583,"implied_prevalence","disease",14,"generic","infected ears",0.09,"thups",NA,"accidental_low"
35,2284,"implied_prevalence","vague",15,"generic","smooth feathers",0.7,"javs",NA,"vague"
35,3379,"implied_prevalence","color",16,"generic","blue claws",0.93,"blins",NA,"color"
35,3950,"implied_prevalence","vague",17,"generic","long tails",0.85,"taifels",NA,"vague"
35,4062,"implied_prevalence","part",18,"generic","skin",1,"morseths",NA,"part"
35,3056,"implied_prevalence","part",19,"generic","legs",1,"glippets",NA,"part"
35,3361,"implied_prevalence","part",20,"generic","claws",1,"trufts",NA,"part"
35,2288,"implied_prevalence","accidental",21,"generic","swollen ears",0.3,"ollers",NA,"accidental_low"
35,2971,"implied_prevalence","part",22,"generic","teeth",1,"grinks",NA,"part"
35,3048,"implied_prevalence","vague",23,"generic","big claws",0.87,"cheebas",NA,"vague"
35,2811,"implied_prevalence","accidental",24,"generic","itchy tails",0.23,"elleps",NA,"accidental_high"
35,2334,"implied_prevalence","accidental",25,"generic","sore teeth",0.14,"reesles",NA,"accidental_low"
35,4131,"implied_prevalence","color",26,"generic","purple feathers",0.83,"lorches",NA,"color"
35,3484,"implied_prevalence","color",27,"generic","orange ears",0.77,"zoovs",NA,"color"
35,5635,"implied_prevalence","color",28,"generic","yellow fur",0.73,"kazzes",NA,"color"
35,2958,"implied_prevalence","vague",29,"generic","rough skin",0.69,"ackles",NA,"vague"
36,16218,"implied_prevalence","part",0,"generic","claws",0.5,"javs",NA,"part"
36,9741,"implied_prevalence","vague",1,"generic","big claws",0.75,"zoovs",NA,"vague"
36,6716,"implied_prevalence","accidental",2,"generic","itchy tails",0.5,"grinks",NA,"accidental_high"
36,7674,"implied_prevalence","accidental",3,"generic","dusty skin",0.5,"zorbs",NA,"accidental_high"
36,5894,"implied_prevalence","vague",4,"generic","small ears",0.5,"cheebas",NA,"vague"
36,7413,"implied_prevalence","color",5,"generic","silver legs",0.5,"taifels",NA,"color"
36,5895,"implied_prevalence","vague",6,"generic","long tails",0.5,"plovs",NA,"vague"
36,8270,"implied_prevalence","vague",7,"generic","smooth feathers",0.25,"ackles",NA,"vague"
36,5927,"implied_prevalence","part",8,"generic","skin",1,"moxes",NA,"part"
36,5242,"implied_prevalence","part",9,"generic","ears",1,"glippets",NA,"part"
36,5534,"implied_prevalence","color",10,"generic","blue claws",0.5,"thups",NA,"color"
36,8078,"implied_prevalence","disease",11,"generic","broken legs",0.1,"blins",NA,"accidental_low"
36,5501,"implied_prevalence","disease",12,"generic","fungus-covered fur",0.15,"luzaks",NA,"accidental_high"
36,5693,"implied_prevalence","part",13,"generic","teeth",1,"trufts",NA,"part"
