workerid,rt,trial_type,word,category,trialNum,qud,stimtype,query,property,response
0,3018,generalization,all,feps,0,category,color,salience,red scales,0.32
0,1776,generalization,most,reesles,1,category,color,prevalence,purple feathers,0.62
0,1157,generalization,most,luzaks,2,category,otherbio,salience,long legs,0.39
0,977,generalization,generic,morseths,3,category,otherbio,prevalence,small ears,0.38
0,877,generalization,all,ollers,4,category,color,prevalence,copper spots,0.74
0,796,generalization,most,stups,5,category,otherbio,prevalence,long tails,0.53
0,1193,generalization,some,mooks,6,category,otherbio,salience,light shells,0.17
0,1089,generalization,some,kweps,7,category,otherbio,prevalence,sensitive spots,0.37
0,1179,generalization,generic,cheebas,8,category,otherbio,salience,soft scales,0.37
0,2077,generalization,some,frams,9,category,otherbio,prevalence,curly fur,0.74
0,936,generalization,most,blins,10,category,color,salience,orange tails,0.45
0,1577,generalization,generic,zorbs,11,category,otherbio,salience,smooth feathers,0.52
0,1086,generalization,some,trufts,12,category,color,salience,green shells,0.26
0,1017,generalization,all,dorbs,13,category,color,prevalence,silver fur,0.75
0,1879,generalization,generic,javs,14,category,color,prevalence,blue ears,0.72
0,2056,generalization,all,elleps,15,category,color,salience,yellow legs,0.86
1,9941,generalization,most,kweps,0,category,otherbio,salience,curly fur,0.83
1,9879,generalization,generic,feps,1,category,otherbio,salience,long teeth,1
1,3320,generalization,generic,kazzes,2,category,otherbio,prevalence,soft scales,1
1,5583,generalization,generic,elleps,3,category,otherbio,prevalence,small ears,1
1,3096,generalization,generic,feps,4,category,color,salience,pink legs,0.89
1,2471,generalization,all,zorbs,5,category,color,prevalence,copper fur,1
1,2192,generalization,some,luzaks,6,category,otherbio,prevalence,thin stripes,0.26
1,4624,generalization,all,stups,7,category,otherbio,prevalence,long tails,1
1,2884,generalization,all,taifels,8,category,color,salience,gold spots,1
1,4650,generalization,most,ackles,9,category,color,salience,blue teeth,0.72
1,2871,generalization,some,ludinos,10,category,otherbio,salience,long legs,0.22
1,8782,generalization,most,thups,11,category,color,prevalence,orange ears,0.91
1,4676,generalization,some,noobs,12,category,color,prevalence,green tails,0.38
1,3446,generalization,some,krivels,13,category,otherbio,salience,sensitive spots,0.29
1,1880,generalization,most,crullets,14,category,color,prevalence,yellow scales,0.78
1,2889,generalization,all,trufts,15,category,color,salience,silver stripes,1
2,7294,generalization,most,zoovs,0,category,otherbio,prevalence,long tails,0.77
2,1855,generalization,some,crullets,1,category,color,prevalence,red feathers,0.52
2,3265,generalization,all,javs,2,category,otherbio,prevalence,small ears,1
2,12983,generalization,generic,mooks,3,category,color,salience,pink legs,0.24
2,6608,generalization,most,feps,4,category,color,salience,orange ears,0.7
2,1904,generalization,most,elleps,5,category,color,prevalence,gold spots,0.76
2,1903,generalization,some,dorbs,6,category,otherbio,salience,sensitive spots,0.43
2,1447,generalization,some,ludinos,7,category,otherbio,salience,light shells,0.46
2,2537,generalization,all,cheebas,8,category,color,salience,purple shells,0.98
2,3578,generalization,generic,blins,9,category,otherbio,salience,smooth feathers,0.57
2,1876,generalization,most,ollers,10,category,color,salience,silver stripes,0.84
2,2448,generalization,generic,stups,11,category,otherbio,prevalence,thin stripes,0.51
2,3071,generalization,some,moxes,12,category,otherbio,prevalence,long teeth,0.35
2,2622,generalization,all,taifels,13,category,color,prevalence,green tails,0.97
2,2250,generalization,generic,sapers,14,category,otherbio,prevalence,long legs,0.5
2,2217,generalization,all,noobs,15,category,color,salience,blue teeth,0.94
3,15719,generalization,most,trufts,0,property,otherbio,prevalence,thin stripes,0.79
3,20450,generalization,most,mooks,1,property,color,salience,pink teeth,0.84
3,5576,generalization,all,thups,2,property,color,prevalence,gold stripes,1
3,6348,generalization,most,feps,3,property,otherbio,salience,long tails,0.79
3,10160,generalization,generic,cheebas,4,property,color,prevalence,yellow legs,1
3,4170,generalization,all,ludinos,5,property,color,prevalence,orange tails,1
3,12714,generalization,all,dorbs,6,property,otherbio,salience,long legs,0.22
3,11460,generalization,generic,moxes,7,property,otherbio,salience,sensitive spots,0.56
3,5859,generalization,generic,javs,8,property,color,prevalence,copper spots,1
3,22724,generalization,some,crullets,9,property,otherbio,salience,light shells,0.61
3,8143,generalization,some,morseths,10,property,otherbio,prevalence,curly fur,0.46
3,5513,generalization,most,daiths,11,property,color,prevalence,red scales,0.79
3,5717,generalization,all,zoovs,12,property,color,salience,green shells,0.66
3,5436,generalization,some,stups,13,property,color,prevalence,silver fur,0.34
3,11014,generalization,some,ollers,14,property,otherbio,salience,soft scales,0.7
3,6442,generalization,generic,kweps,15,property,otherbio,salience,long teeth,0.18
4,4633,generalization,generic,morseths,0,category,otherbio,salience,sensitive spots,0.8
4,1855,generalization,all,ollers,1,category,otherbio,salience,soft scales,0.57
4,4119,generalization,generic,kazzes,2,category,color,prevalence,pink ears,1
4,2562,generalization,some,kweps,3,category,color,prevalence,green teeth,0.56
4,2423,generalization,most,frams,4,category,color,salience,red spots,0.83
4,3367,generalization,most,trufts,5,category,color,prevalence,blue scales,0.83
4,2540,generalization,some,javs,6,category,otherbio,salience,long teeth,0.55
4,1732,generalization,all,mooks,7,category,otherbio,prevalence,long tails,1
4,1868,generalization,all,blins,8,category,color,salience,purple tails,1
4,2031,generalization,generic,glippets,9,category,color,salience,silver legs,1
4,2670,generalization,generic,luzaks,10,category,otherbio,prevalence,long legs,1
4,2289,generalization,some,ackles,11,category,color,prevalence,orange shells,0.56
4,1826,generalization,all,noobs,12,category,otherbio,prevalence,smooth feathers,1
4,2520,generalization,most,dorbs,13,category,color,salience,gold feathers,0.85
4,1751,generalization,most,lorches,14,category,otherbio,prevalence,small ears,0.88
4,3549,generalization,some,feps,15,category,otherbio,salience,light shells,0.39
5,11342,generalization,all,noobs,0,property,otherbio,salience,curly fur,0.81
5,4515,generalization,some,frams,1,property,color,salience,silver stripes,0.08
5,5797,generalization,most,glippets,2,property,color,prevalence,orange ears,0.52
5,3196,generalization,all,luzaks,3,property,otherbio,salience,smooth feathers,0.85
5,3972,generalization,some,krivels,4,property,otherbio,salience,sensitive spots,0.1
5,4698,generalization,most,blins,5,property,otherbio,salience,light shells,0.63
5,7278,generalization,generic,mooks,6,property,color,salience,gold spots,0.84
5,4936,generalization,generic,moxes,7,property,otherbio,prevalence,small ears,1
5,4348,generalization,generic,kweps,8,property,color,prevalence,red feathers,1
5,3257,generalization,some,trufts,9,property,otherbio,prevalence,long teeth,0.24
5,2117,generalization,some,lorches,10,property,color,prevalence,copper fur,0.19
5,2580,generalization,all,dorbs,11,property,color,prevalence,blue teeth,1
5,5531,generalization,most,plovs,12,property,color,salience,green tails,0.47
5,3206,generalization,all,zorbs,13,property,color,prevalence,purple shells,1
5,2344,generalization,most,thups,14,property,otherbio,prevalence,long tails,0.79
5,6523,generalization,generic,ludinos,15,property,otherbio,salience,thin stripes,0.67
6,4920,generalization,some,zorbs,0,property,color,prevalence,red feathers,0.37
6,6756,generalization,most,morseths,1,property,otherbio,salience,thin stripes,0.63
6,5063,generalization,generic,dorbs,2,property,color,prevalence,blue teeth,0.83
6,8642,generalization,all,daiths,3,property,otherbio,prevalence,long teeth,0.98
6,4097,generalization,some,ludinos,4,property,otherbio,salience,curly fur,0.18
6,5386,generalization,generic,kweps,5,property,otherbio,salience,smooth feathers,0.51
6,3652,generalization,generic,feps,6,property,otherbio,prevalence,long tails,0.75
6,3287,generalization,all,crullets,7,property,otherbio,salience,soft scales,0.99
6,2731,generalization,some,trufts,8,property,color,prevalence,copper fur,0.35
6,4569,generalization,most,plovs,9,property,otherbio,salience,long legs,0.47
6,3255,generalization,all,blins,10,property,color,salience,yellow scales,0.94
6,3417,generalization,generic,javs,11,property,color,salience,green tails,0.71
6,4901,generalization,some,ackles,12,property,color,salience,silver stripes,0.32
6,3520,generalization,all,kazzes,13,property,otherbio,prevalence,light shells,0.99
6,3181,generalization,most,frams,14,property,color,prevalence,purple shells,0.76
6,2371,generalization,most,lorches,15,property,color,prevalence,pink legs,0.79
7,19710,generalization,all,javs,0,category,otherbio,salience,soft scales,0.62
7,16183,generalization,some,crullets,1,category,color,prevalence,orange shells,0.39
7,13576,generalization,some,krivels,2,category,color,salience,copper stripes,0.39
7,8496,generalization,all,glippets,3,category,color,prevalence,gold feathers,0.98
7,4819,generalization,most,dorbs,4,category,color,prevalence,pink ears,0.86
7,7794,generalization,all,luzaks,5,category,color,prevalence,blue scales,0.99
7,11070,generalization,generic,cheebas,6,category,otherbio,salience,long teeth,0.67
7,7446,generalization,generic,daiths,7,category,otherbio,prevalence,small ears,1
7,9948,generalization,most,kweps,8,category,otherbio,salience,smooth feathers,0.69
7,7833,generalization,most,zorbs,9,category,otherbio,prevalence,long legs,0.89
7,4096,generalization,generic,kazzes,10,category,color,prevalence,silver legs,1
7,7581,generalization,some,stups,11,category,otherbio,prevalence,thin stripes,0.41
7,5332,generalization,generic,taifels,12,category,otherbio,salience,curly fur,0.53
7,8083,generalization,most,feps,13,category,otherbio,salience,light shells,0.68
7,6479,generalization,some,sapers,14,category,color,salience,yellow fur,0.59
7,5949,generalization,all,moxes,15,category,color,salience,green teeth,0.3
8,11159,generalization,most,sapers,0,property,otherbio,prevalence,small ears,0.77
8,6032,generalization,some,daiths,1,property,otherbio,prevalence,smooth feathers,0.29
8,8534,generalization,generic,javs,2,property,otherbio,prevalence,light shells,0.92
8,7676,generalization,all,luzaks,3,property,color,prevalence,red feathers,0.96
8,12469,generalization,all,elleps,4,property,otherbio,salience,thin stripes,0.73
8,10113,generalization,generic,zorbs,5,property,color,salience,silver stripes,0.68
8,9856,generalization,some,krivels,6,property,otherbio,salience,long teeth,0.38
8,8665,generalization,most,stups,7,property,color,prevalence,gold spots,0.73
8,5214,generalization,all,taifels,8,property,otherbio,salience,long legs,0.94
8,5681,generalization,most,zoovs,9,property,color,salience,pink legs,0.72
8,10436,generalization,generic,mooks,10,property,otherbio,prevalence,soft scales,0.66
8,4626,generalization,most,glippets,11,property,otherbio,salience,sensitive spots,0.8
8,6384,generalization,generic,ollers,12,property,color,salience,orange ears,0.6
8,7520,generalization,all,thups,13,property,color,prevalence,blue teeth,0.96
8,11456,generalization,some,frams,14,property,color,salience,yellow scales,0.41
8,3746,generalization,some,ackles,15,property,color,prevalence,purple shells,0.42
9,18252,generalization,all,dorbs,0,property,color,salience,yellow scales,0.36
9,5712,generalization,generic,feps,1,property,color,salience,blue teeth,0.58
9,11999,generalization,some,plovs,2,property,color,prevalence,gold spots,0.21
9,9720,generalization,most,reesles,3,property,color,prevalence,pink legs,0.91
9,7648,generalization,generic,zoovs,4,property,otherbio,prevalence,long tails,1
9,10968,generalization,some,trufts,5,property,otherbio,salience,curly fur,0.98
9,5888,generalization,most,moxes,6,property,color,prevalence,copper fur,0.87
9,7376,generalization,all,morseths,7,property,otherbio,prevalence,light shells,1
9,6664,generalization,all,blins,8,property,otherbio,prevalence,long teeth,1
9,5672,generalization,some,elleps,9,property,color,prevalence,green tails,0.35
9,8241,generalization,most,frams,10,property,otherbio,salience,thin stripes,0.15
9,8511,generalization,generic,noobs,11,property,otherbio,salience,long legs,1
9,6183,generalization,some,lorches,12,property,color,salience,silver stripes,1
9,7473,generalization,generic,zorbs,13,property,otherbio,prevalence,sensitive spots,1
9,16424,generalization,most,javs,14,property,otherbio,salience,soft scales,0.25
9,10799,generalization,all,glippets,15,property,color,salience,purple shells,0.82
10,7986,generalization,most,ackles,0,property,color,salience,red feathers,0.86
10,3220,generalization,some,plovs,1,property,color,salience,blue teeth,0.89
10,2743,generalization,all,kazzes,2,property,color,prevalence,purple shells,0.9
10,3947,generalization,generic,feps,3,property,otherbio,salience,light shells,0.32
10,4670,generalization,some,reesles,4,property,otherbio,prevalence,thin stripes,0.22
10,3700,generalization,most,lorches,5,property,otherbio,prevalence,curly fur,0.8
10,5221,generalization,all,dorbs,6,property,color,salience,silver stripes,0.27
10,3866,generalization,most,daiths,7,property,color,salience,orange ears,0.62
10,3027,generalization,all,noobs,8,property,otherbio,prevalence,long tails,0.99
10,4220,generalization,generic,feps,9,property,otherbio,salience,smooth feathers,0.27
10,5698,generalization,generic,frams,10,property,otherbio,prevalence,small ears,0.99
10,5134,generalization,some,zorbs,11,property,color,salience,green tails,0.82
10,3548,generalization,generic,morseths,12,property,color,prevalence,copper fur,0.98
10,2986,generalization,most,zoovs,13,property,otherbio,prevalence,long legs,0.84
10,2646,generalization,some,thups,14,property,otherbio,prevalence,long teeth,0.25
10,3974,generalization,all,javs,15,property,color,salience,pink legs,0.21
11,17733,generalization,most,taifels,0,category,otherbio,salience,light shells,0.73
11,9527,generalization,all,mooks,1,category,otherbio,prevalence,soft scales,1
11,12484,generalization,all,feps,2,category,otherbio,salience,thin stripes,0.38
11,9001,generalization,generic,kweps,3,category,color,prevalence,gold stripes,0.99
11,12068,generalization,some,ackles,4,category,otherbio,salience,sensitive spots,0.13
11,9420,generalization,generic,feps,5,category,color,salience,pink teeth,0.49
11,7625,generalization,most,cheebas,6,category,otherbio,prevalence,smooth feathers,0.74
11,8566,generalization,some,frams,7,category,otherbio,salience,long teeth,0.23
11,7551,generalization,all,zoovs,8,category,color,prevalence,red scales,1
11,6453,generalization,all,luzaks,9,category,color,salience,yellow legs,0.57
11,5905,generalization,generic,trufts,10,category,otherbio,salience,long legs,0.79
11,6333,generalization,generic,ludinos,11,category,otherbio,prevalence,long tails,0.97
11,6451,generalization,some,kazzes,12,category,color,prevalence,copper spots,0.49
11,7783,generalization,some,reesles,13,category,color,prevalence,purple feathers,0.49
11,8820,generalization,most,crullets,14,category,color,salience,green shells,0.36
11,5600,generalization,most,zorbs,15,category,color,prevalence,orange tails,0.76
12,17132,generalization,all,morseths,0,property,color,prevalence,green tails,0.99
12,20520,generalization,some,taifels,1,property,otherbio,salience,long teeth,0.27
12,11063,generalization,some,ackles,2,property,color,prevalence,blue teeth,0.51
12,9081,generalization,most,ollers,3,property,otherbio,prevalence,light shells,0.76
12,9670,generalization,some,krivels,4,property,otherbio,prevalence,long legs,0.52
12,5765,generalization,all,sapers,5,property,color,prevalence,purple shells,0.97
12,8219,generalization,all,zorbs,6,property,otherbio,salience,smooth feathers,0.88
12,6053,generalization,all,feps,7,property,otherbio,salience,long tails,0.84
12,9113,generalization,generic,plovs,8,property,color,prevalence,gold spots,0.97
12,5201,generalization,most,moxes,9,property,otherbio,prevalence,sensitive spots,0.85
12,6802,generalization,most,trufts,10,property,color,salience,pink legs,0.79
12,5514,generalization,some,reesles,11,property,color,salience,orange ears,0.16
12,16802,generalization,generic,noobs,12,property,otherbio,prevalence,small ears,0.99
12,8149,generalization,generic,kweps,13,property,otherbio,salience,curly fur,0.91
12,5375,generalization,generic,luzaks,14,property,color,salience,red feathers,0.89
12,9041,generalization,most,dorbs,15,property,color,salience,copper fur,0.76
13,7354,generalization,all,lorches,0,property,color,prevalence,silver fur,0.99
13,5440,generalization,some,mooks,1,property,color,prevalence,purple feathers,0.53
13,4917,generalization,generic,dorbs,2,property,otherbio,prevalence,curly fur,0.99
13,10174,generalization,generic,ollers,3,property,otherbio,salience,long teeth,0.91
13,4083,generalization,some,javs,4,property,color,prevalence,orange tails,0.51
13,4988,generalization,generic,kazzes,5,property,otherbio,prevalence,light shells,0.97
13,4176,generalization,most,feps,6,property,color,prevalence,green shells,0.79
13,3945,generalization,all,zoovs,7,property,otherbio,prevalence,long legs,0.99
13,3662,generalization,most,plovs,8,property,color,salience,yellow legs,0.79
13,4576,generalization,some,noobs,9,property,otherbio,salience,smooth feathers,0.26
13,3982,generalization,some,zorbs,10,property,color,salience,pink teeth,0.27
13,4676,generalization,generic,elleps,11,property,otherbio,salience,soft scales,0.96
13,4154,generalization,most,taifels,12,property,color,prevalence,copper spots,0.88
13,10133,generalization,all,glippets,13,property,color,salience,red scales,0.93
13,5528,generalization,most,reesles,14,property,otherbio,salience,long tails,0.71
13,4532,generalization,all,stups,15,property,otherbio,salience,sensitive spots,0.92
14,2967,generalization,some,feps,0,property,otherbio,salience,light shells,0.62
14,2697,generalization,generic,moxes,1,property,color,prevalence,orange tails,0.58
14,1595,generalization,all,krivels,2,property,otherbio,salience,small ears,0.37
14,1095,generalization,most,zoovs,3,property,color,prevalence,pink teeth,0.7
14,1563,generalization,most,thups,4,property,otherbio,prevalence,long teeth,0.5
14,981,generalization,most,elleps,5,property,color,salience,silver fur,0.61
14,2472,generalization,generic,kweps,6,property,otherbio,prevalence,long tails,0.44
14,1050,generalization,all,javs,7,property,color,prevalence,copper spots,0.69
14,1346,generalization,some,ludinos,8,property,otherbio,prevalence,sensitive spots,0.32
14,2760,generalization,all,feps,9,property,otherbio,prevalence,curly fur,1
14,1429,generalization,some,zorbs,10,property,color,prevalence,red scales,0.42
14,2294,generalization,all,mooks,11,property,color,salience,blue ears,1
14,1384,generalization,some,luzaks,12,property,color,salience,purple feathers,0.62
14,3785,generalization,generic,kazzes,13,property,otherbio,salience,smooth feathers,0.77
14,2745,generalization,generic,frams,14,property,color,salience,green shells,0.38
14,1663,generalization,most,dorbs,15,property,otherbio,salience,soft scales,0.64
15,9212,generalization,some,mooks,0,category,color,prevalence,orange tails,0.54
15,8841,generalization,most,thups,1,category,color,salience,blue ears,0.94
15,3913,generalization,some,glippets,2,category,otherbio,prevalence,smooth feathers,0.48
15,6228,generalization,generic,trufts,3,category,color,salience,yellow legs,0.98
15,3096,generalization,all,reesles,4,category,color,salience,red scales,0.99
15,3364,generalization,most,taifels,5,category,otherbio,prevalence,long tails,0.91
15,6039,generalization,generic,ackles,6,category,color,salience,green shells,0.95
15,4718,generalization,all,cheebas,7,category,otherbio,prevalence,long teeth,0.99
15,4707,generalization,most,moxes,8,category,otherbio,salience,light shells,0.78
15,5681,generalization,generic,feps,9,category,otherbio,prevalence,soft scales,0.97
15,3105,generalization,most,luzaks,10,category,otherbio,prevalence,long legs,0.82
15,5199,generalization,some,dorbs,11,category,otherbio,salience,small ears,0.28
15,3448,generalization,all,morseths,12,category,color,prevalence,pink teeth,0.97
15,4848,generalization,all,javs,13,category,color,salience,gold stripes,0.99
15,3221,generalization,generic,zorbs,14,category,color,prevalence,purple feathers,1
15,2793,generalization,some,frams,15,category,otherbio,salience,thin stripes,0.51
16,17570,generalization,most,morseths,0,category,otherbio,salience,small ears,0.61
16,6965,generalization,generic,ollers,1,category,color,salience,blue teeth,0.63
16,9955,generalization,all,dorbs,2,category,color,prevalence,orange ears,1
16,5861,generalization,most,cheebas,3,category,otherbio,salience,smooth feathers,0.48
16,32850,generalization,most,mooks,4,category,color,prevalence,yellow scales,0.73
16,5692,generalization,generic,elleps,5,category,otherbio,prevalence,soft scales,1
16,6602,generalization,some,glippets,6,category,color,prevalence,green tails,0.5
16,5907,generalization,all,crullets,7,category,otherbio,salience,light shells,0.62
16,17954,generalization,generic,kweps,8,category,otherbio,salience,thin stripes,0.53
16,4027,generalization,generic,moxes,9,category,color,prevalence,red feathers,1
16,4770,generalization,some,thups,10,category,otherbio,salience,long tails,0.5
16,4286,generalization,some,javs,11,category,otherbio,prevalence,curly fur,0.5
16,5050,generalization,most,ackles,12,category,color,prevalence,silver stripes,0.86
16,4534,generalization,all,noobs,13,category,otherbio,salience,long teeth,0.57
16,6365,generalization,some,blins,14,category,color,salience,copper fur,0.45
16,3467,generalization,all,kazzes,15,category,color,prevalence,purple shells,1
17,34942,generalization,all,daiths,0,property,color,salience,green shells,0.9
17,12277,generalization,generic,plovs,1,property,color,prevalence,gold stripes,0.87
17,10111,generalization,most,dorbs,2,property,otherbio,salience,long teeth,0.79
17,7164,generalization,all,stups,3,property,otherbio,prevalence,soft scales,1
17,8665,generalization,some,zoovs,4,property,color,salience,red scales,0.3
17,6646,generalization,some,reesles,5,property,color,salience,silver fur,0.16
17,4466,generalization,most,mooks,6,property,color,prevalence,pink teeth,0.78
17,6080,generalization,most,zorbs,7,property,otherbio,prevalence,smooth feathers,0.84
17,9246,generalization,all,ludinos,8,property,otherbio,salience,thin stripes,0.88
17,8530,generalization,generic,krivels,9,property,otherbio,salience,curly fur,0.98
17,6764,generalization,generic,elleps,10,property,otherbio,salience,long legs,0.81
17,6768,generalization,some,sapers,11,property,color,prevalence,purple feathers,0.47
17,7299,generalization,generic,ackles,12,property,otherbio,prevalence,light shells,0.87
17,7897,generalization,most,glippets,13,property,otherbio,salience,small ears,0.22
17,5581,generalization,some,javs,14,property,color,prevalence,blue ears,0.3
17,3452,generalization,all,kazzes,15,property,color,prevalence,yellow legs,1
18,8398,generalization,generic,daiths,0,property,color,prevalence,red feathers,0.99
18,7720,generalization,generic,luzaks,1,property,otherbio,salience,long tails,0.62
18,6488,generalization,most,elleps,2,property,otherbio,prevalence,light shells,0.75
18,2976,generalization,most,cheebas,3,property,otherbio,prevalence,long legs,0.78
18,13668,generalization,all,crullets,4,property,color,prevalence,copper fur,0.98
18,4204,generalization,all,taifels,5,property,otherbio,salience,small ears,0.7
18,3822,generalization,some,kazzes,6,property,color,prevalence,silver stripes,0.59
18,7442,generalization,most,thups,7,property,color,salience,pink legs,0.28
18,4480,generalization,some,kweps,8,property,color,salience,purple shells,0.44
18,23023,generalization,all,feps,9,property,otherbio,prevalence,long teeth,0.99
18,5374,generalization,all,javs,10,property,color,salience,green tails,0.07
18,4362,generalization,most,dorbs,11,property,otherbio,salience,smooth feathers,0.75
18,3472,generalization,some,morseths,12,property,color,salience,orange ears,0.43
18,3713,generalization,generic,mooks,13,property,otherbio,salience,curly fur,0.38
18,3451,generalization,some,sapers,14,property,color,prevalence,blue teeth,0.38
18,4444,generalization,generic,zoovs,15,property,otherbio,prevalence,thin stripes,0.91
19,6180,generalization,most,ludinos,0,property,color,prevalence,orange shells,0.86
19,5839,generalization,some,glippets,1,property,otherbio,salience,long teeth,0.39
19,3704,generalization,some,daiths,2,property,otherbio,prevalence,small ears,0.29
19,3928,generalization,all,feps,3,property,otherbio,prevalence,sensitive spots,0.99
19,3752,generalization,all,plovs,4,property,color,prevalence,green teeth,0.98
19,5792,generalization,most,kweps,5,property,color,salience,purple tails,0.71
19,5552,generalization,some,taifels,6,property,color,prevalence,blue scales,0.36
19,8511,generalization,generic,zoovs,7,property,color,salience,red spots,1
19,6599,generalization,all,krivels,8,property,otherbio,salience,light shells,1
19,6000,generalization,most,cheebas,9,property,color,salience,pink ears,1
19,5839,generalization,generic,crullets,10,property,otherbio,prevalence,soft scales,1
19,3472,generalization,generic,trufts,11,property,otherbio,prevalence,long legs,1
19,3871,generalization,generic,luzaks,12,property,color,salience,silver legs,1
19,3999,generalization,some,morseths,13,property,otherbio,salience,curly fur,0.23
19,2135,generalization,all,noobs,14,property,otherbio,salience,long tails,0.99
19,2319,generalization,most,ackles,15,property,color,prevalence,yellow fur,0.82
20,4863,generalization,most,trufts,0,category,color,prevalence,gold stripes,0.74
20,7312,generalization,some,lorches,1,category,color,salience,copper spots,0.48
20,5231,generalization,some,kweps,2,category,otherbio,prevalence,curly fur,0.3
20,4208,generalization,all,sapers,3,category,color,prevalence,red scales,1
20,8632,generalization,some,crullets,4,category,otherbio,salience,long tails,0.26
20,5656,generalization,most,ackles,5,category,otherbio,prevalence,soft scales,0.86
20,5439,generalization,generic,taifels,6,category,otherbio,prevalence,sensitive spots,1
20,3855,generalization,all,glippets,7,category,color,salience,pink teeth,1
20,5617,generalization,generic,reesles,8,category,color,prevalence,orange tails,1
20,6215,generalization,all,moxes,9,category,color,salience,silver fur,0.7
20,4751,generalization,most,ollers,10,category,otherbio,salience,smooth feathers,0.62
20,4521,generalization,most,daiths,11,category,color,salience,purple feathers,0.68
20,4952,generalization,generic,feps,12,category,otherbio,salience,thin stripes,0.58
20,3287,generalization,some,feps,13,category,otherbio,prevalence,long teeth,0.29
20,3999,generalization,generic,stups,14,category,color,salience,green shells,0.68
20,2952,generalization,all,zoovs,15,category,otherbio,prevalence,light shells,1
21,19018,generalization,most,glippets,0,property,otherbio,salience,small ears,0.78
21,12240,generalization,most,ludinos,1,property,color,prevalence,copper spots,0.4
21,9020,generalization,generic,morseths,2,property,otherbio,salience,sensitive spots,0.53
21,8815,generalization,generic,feps,3,property,color,prevalence,orange tails,0.84
21,129032,generalization,most,luzaks,4,property,otherbio,salience,smooth feathers,0.5
21,6294,generalization,all,moxes,5,property,otherbio,salience,long legs,0.9
21,6255,generalization,some,feps,6,property,otherbio,prevalence,soft scales,0.46
21,5650,generalization,some,blins,7,property,otherbio,salience,curly fur,0.47
21,6459,generalization,most,javs,8,property,otherbio,prevalence,long tails,0.29
21,6399,generalization,all,ollers,9,property,color,salience,blue ears,0.78
21,5930,generalization,all,krivels,10,property,color,prevalence,silver fur,0.88
21,3710,generalization,all,kweps,11,property,color,prevalence,red scales,0.91
21,8560,generalization,some,trufts,12,property,color,salience,gold stripes,0.21
21,5648,generalization,generic,crullets,13,property,color,prevalence,yellow legs,0.73
21,7520,generalization,generic,kazzes,14,property,otherbio,salience,thin stripes,0.64
21,6269,generalization,some,zorbs,15,property,color,prevalence,purple feathers,0.69
22,13479,generalization,generic,taifels,0,property,color,prevalence,yellow legs,1
22,9126,generalization,all,mooks,1,property,otherbio,prevalence,small ears,0.99
22,17661,generalization,generic,trufts,2,property,color,salience,blue ears,1
22,15159,generalization,generic,moxes,3,property,color,salience,copper spots,0.67
22,15132,generalization,most,cheebas,4,property,otherbio,prevalence,thin stripes,0.78
22,10227,generalization,some,kazzes,5,property,otherbio,prevalence,smooth feathers,0.31
22,9238,generalization,some,javs,6,property,color,salience,purple feathers,0.19
22,14233,generalization,all,ludinos,7,property,color,salience,pink teeth,0.88
22,7441,generalization,all,zorbs,8,property,otherbio,prevalence,long teeth,1
22,12023,generalization,most,ollers,9,property,otherbio,salience,long legs,0.62
22,9401,generalization,most,daiths,10,property,otherbio,salience,curly fur,0.69
22,11529,generalization,generic,lorches,11,property,otherbio,prevalence,sensitive spots,0.98
22,8021,generalization,most,plovs,12,property,color,prevalence,gold stripes,0.79
22,8125,generalization,all,reesles,13,property,color,salience,orange tails,0.99
22,8958,generalization,some,elleps,14,property,color,prevalence,silver fur,0.36
22,11934,generalization,some,blins,15,property,otherbio,salience,long tails,0.12
23,14445,generalization,all,noobs,0,property,color,salience,green teeth,0.77
23,11164,generalization,some,frams,1,property,otherbio,prevalence,long legs,0.49
23,13952,generalization,most,ackles,2,property,otherbio,salience,sensitive spots,0.77
23,6078,generalization,all,trufts,3,property,otherbio,salience,curly fur,0.91
23,10258,generalization,all,elleps,4,property,color,prevalence,silver legs,1
23,6553,generalization,some,kweps,5,property,otherbio,prevalence,small ears,0.5
23,6727,generalization,most,sapers,6,property,color,prevalence,red spots,0.85
23,12124,generalization,generic,reesles,7,property,otherbio,prevalence,long teeth,0.99
23,7866,generalization,some,cheebas,8,property,color,salience,copper stripes,0.41
23,6462,generalization,all,kazzes,9,property,color,prevalence,pink ears,0.99
23,7521,generalization,some,taifels,10,property,otherbio,salience,soft scales,0.4
23,6938,generalization,generic,zoovs,11,property,color,salience,yellow fur,0.93
23,7562,generalization,generic,feps,12,property,otherbio,prevalence,long tails,0.99
23,7531,generalization,most,ludinos,13,property,otherbio,salience,thin stripes,0.82
23,8101,generalization,generic,feps,14,property,color,salience,blue scales,0.95
23,8359,generalization,most,stups,15,property,color,prevalence,purple tails,0.84
24,13841,generalization,some,dorbs,0,category,otherbio,salience,sensitive spots,0.12
24,4264,generalization,generic,elleps,1,category,color,salience,gold stripes,0.06
24,2408,generalization,some,crullets,2,category,color,salience,green shells,0.08
24,4333,generalization,most,glippets,3,category,color,prevalence,copper spots,0.13
24,4062,generalization,all,zoovs,4,category,color,prevalence,blue ears,0.14
24,2195,generalization,all,zorbs,5,category,otherbio,salience,long legs,0.04
24,2266,generalization,all,krivels,6,category,color,prevalence,silver fur,0.13
24,1528,generalization,some,luzaks,7,category,color,prevalence,orange tails,0.18
24,1786,generalization,generic,cheebas,8,category,otherbio,prevalence,small ears,0.17
24,1415,generalization,some,kazzes,9,category,color,prevalence,red scales,0.27
24,2218,generalization,most,ollers,10,category,otherbio,salience,light shells,0.12
24,2993,generalization,most,mooks,11,category,otherbio,salience,soft scales,0.15
24,11987,generalization,most,reesles,12,category,otherbio,prevalence,long tails,0.72
24,3290,generalization,generic,frams,13,category,otherbio,prevalence,curly fur,0.61
24,5690,generalization,all,thups,14,category,color,salience,yellow legs,0.22
24,2654,generalization,generic,ludinos,15,category,otherbio,salience,thin stripes,0.32
25,28880,generalization,some,glippets,0,property,color,prevalence,gold stripes,0.26
25,9159,generalization,all,noobs,1,property,color,salience,orange tails,0.98
25,8051,generalization,generic,crullets,2,property,color,salience,red scales,0.95
25,5055,generalization,some,kweps,3,property,otherbio,prevalence,smooth feathers,0.39
25,57215,generalization,most,daiths,4,property,color,prevalence,yellow legs,0.77
25,3628,generalization,all,dorbs,5,property,otherbio,prevalence,soft scales,0.98
25,3340,generalization,generic,kazzes,6,property,otherbio,prevalence,curly fur,0.82
25,5160,generalization,some,feps,7,property,otherbio,salience,small ears,0.34
25,4511,generalization,all,reesles,8,property,color,prevalence,copper spots,1
25,5559,generalization,generic,lorches,9,property,color,salience,purple feathers,0.96
25,2294,generalization,all,thups,10,property,otherbio,salience,long legs,0.97
25,2560,generalization,most,zorbs,11,property,color,prevalence,blue ears,0.78
25,2365,generalization,generic,frams,12,property,color,prevalence,silver fur,0.85
25,2466,generalization,most,krivels,13,property,otherbio,salience,long tails,0.91
25,2291,generalization,most,luzaks,14,property,otherbio,salience,sensitive spots,0.86
25,4056,generalization,some,trufts,15,property,otherbio,salience,thin stripes,0.43
26,16133,generalization,generic,crullets,0,property,otherbio,salience,long legs,0.7
26,4856,generalization,all,ackles,1,property,otherbio,salience,long teeth,1
26,7216,generalization,some,noobs,2,property,color,prevalence,red scales,0.18
26,5783,generalization,most,stups,3,property,otherbio,prevalence,small ears,0.7
26,4280,generalization,some,moxes,4,property,otherbio,salience,sensitive spots,0.26
26,4224,generalization,all,zorbs,5,property,color,prevalence,purple feathers,1
26,8967,generalization,generic,taifels,6,property,color,prevalence,blue ears,0.71
26,5255,generalization,all,thups,7,property,otherbio,prevalence,soft scales,1
26,7952,generalization,some,daiths,8,property,color,salience,copper spots,0.11
26,5568,generalization,all,luzaks,9,property,color,salience,yellow legs,1
26,5712,generalization,generic,reesles,10,property,otherbio,salience,curly fur,0.47
26,5407,generalization,most,elleps,11,property,color,salience,pink teeth,0.54
26,4151,generalization,most,cheebas,12,property,color,salience,silver fur,0.47
26,4351,generalization,most,feps,13,property,color,prevalence,green shells,0.72
26,4231,generalization,generic,dorbs,14,property,otherbio,prevalence,light shells,0.51
26,4168,generalization,some,kazzes,15,property,otherbio,prevalence,smooth feathers,0.17
27,16519,generalization,generic,frams,0,category,color,prevalence,purple tails,1
27,16647,generalization,some,mooks,1,category,otherbio,salience,sensitive spots,0.35
27,5953,generalization,all,sapers,2,category,otherbio,prevalence,curly fur,1
27,5559,generalization,most,glippets,3,category,otherbio,prevalence,long tails,0.7
27,4400,generalization,some,feps,4,category,color,prevalence,pink ears,0.49
27,9855,generalization,most,luzaks,5,category,otherbio,prevalence,light shells,0.69
27,5760,generalization,generic,lorches,6,category,color,prevalence,red spots,1
27,10544,generalization,all,ackles,7,category,color,salience,gold feathers,1
27,8287,generalization,some,dorbs,8,category,color,salience,green teeth,0.52
27,6016,generalization,most,krivels,9,category,otherbio,salience,soft scales,0.39
27,4815,generalization,all,stups,10,category,color,prevalence,orange shells,1
27,6360,generalization,all,plovs,11,category,otherbio,salience,small ears,0.84
27,7703,generalization,most,cheebas,12,category,otherbio,salience,long teeth,0.65
27,13343,generalization,generic,zorbs,13,category,otherbio,salience,smooth feathers,1
27,10840,generalization,generic,crullets,14,category,color,salience,blue scales,0.79
27,5191,generalization,some,daiths,15,category,color,prevalence,yellow fur,0.51
28,20363,generalization,generic,feps,0,category,color,salience,yellow fur,0.76
28,10799,generalization,all,plovs,1,category,otherbio,salience,long tails,0.77
28,8239,generalization,generic,frams,2,category,otherbio,prevalence,small ears,0.51
28,5776,generalization,all,morseths,3,category,color,salience,silver legs,1
28,5152,generalization,generic,taifels,4,category,otherbio,prevalence,thin stripes,0.49
28,12320,generalization,most,feps,5,category,otherbio,prevalence,soft scales,0.49
28,6248,generalization,all,moxes,6,category,otherbio,prevalence,long legs,0.75
28,8208,generalization,all,ludinos,7,category,otherbio,prevalence,light shells,0.75
28,5320,generalization,most,sapers,8,category,color,prevalence,purple tails,0.65
28,8872,generalization,some,elleps,9,category,otherbio,salience,curly fur,0.27
28,5559,generalization,some,krivels,10,category,color,prevalence,pink ears,0.29
28,8496,generalization,most,lorches,11,category,color,salience,copper stripes,0.29
28,4599,generalization,some,daiths,12,category,color,salience,red spots,0.25
28,5729,generalization,generic,noobs,13,category,color,salience,blue scales,0.83
28,3144,generalization,most,reesles,14,category,color,salience,orange shells,0.49
28,4472,generalization,some,dorbs,15,category,otherbio,prevalence,sensitive spots,0.26
29,3528,generalization,all,taifels,0,property,otherbio,salience,long legs,0.72
29,3910,generalization,some,feps,1,property,color,salience,blue teeth,0.71
29,3095,generalization,most,crullets,2,property,color,salience,red feathers,0.59
29,1149,generalization,generic,stups,3,property,otherbio,prevalence,long teeth,0.39
29,1025,generalization,all,frams,4,property,otherbio,prevalence,curly fur,0.75
29,4651,generalization,most,plovs,5,property,color,prevalence,gold spots,0.83
29,1181,generalization,all,trufts,6,property,color,salience,yellow scales,0.68
29,2178,generalization,generic,javs,7,property,otherbio,salience,sensitive spots,0.64
29,2240,generalization,some,noobs,8,property,color,prevalence,purple shells,0.46
29,4197,generalization,generic,zorbs,9,property,otherbio,prevalence,soft scales,0.72
29,2520,generalization,some,dorbs,10,property,color,prevalence,pink legs,0.61
29,1479,generalization,some,kazzes,11,property,color,salience,copper fur,0.4
29,1663,generalization,most,sapers,12,property,otherbio,prevalence,light shells,0.68
29,2030,generalization,generic,lorches,13,property,otherbio,salience,smooth feathers,0.64
29,2007,generalization,most,feps,14,property,color,salience,green tails,0.62
29,3257,generalization,all,moxes,15,property,otherbio,prevalence,long tails,0.66
30,4451,generalization,generic,glippets,0,category,color,salience,copper fur,0.59
30,3297,generalization,some,dorbs,1,category,otherbio,prevalence,sensitive spots,0.57
30,34463,generalization,all,ludinos,2,category,color,salience,orange ears,0.61
30,1041,generalization,generic,lorches,3,category,otherbio,salience,smooth feathers,0.45
30,1943,generalization,all,krivels,4,category,color,salience,red feathers,0.59
30,1193,generalization,some,feps,5,category,otherbio,prevalence,curly fur,0.51
30,1063,generalization,all,luzaks,6,category,otherbio,prevalence,long tails,0.7
30,1144,generalization,all,taifels,7,category,otherbio,prevalence,light shells,0.48
30,1383,generalization,most,morseths,8,category,otherbio,prevalence,soft scales,0.71
30,1780,generalization,generic,moxes,9,category,otherbio,prevalence,thin stripes,0.68
30,1524,generalization,most,crullets,10,category,otherbio,salience,small ears,0.46
30,968,generalization,some,ackles,11,category,color,salience,purple shells,0.65
30,1045,generalization,most,cheebas,12,category,color,salience,silver stripes,0.48
30,1120,generalization,most,javs,13,category,color,prevalence,yellow scales,0.74
30,895,generalization,some,blins,14,category,color,salience,gold spots,0.41
30,1141,generalization,generic,trufts,15,category,color,prevalence,green tails,0.73
31,63653,generalization,all,daiths,0,property,otherbio,prevalence,soft scales,0.25
31,16807,generalization,all,kweps,1,property,color,salience,purple tails,0.31
31,6663,generalization,some,thups,2,property,color,prevalence,green teeth,0.08
31,8223,generalization,most,krivels,3,property,otherbio,prevalence,thin stripes,0.55
31,7527,generalization,most,sapers,4,property,otherbio,prevalence,long tails,0.6
31,7063,generalization,generic,ludinos,5,property,color,prevalence,blue scales,0.33
31,5975,generalization,all,morseths,6,property,otherbio,prevalence,small ears,0.84
31,17671,generalization,all,cheebas,7,property,color,salience,silver legs,0.83
31,8039,generalization,generic,feps,8,property,otherbio,salience,long teeth,0.22
31,15711,generalization,generic,elleps,9,property,color,prevalence,pink ears,0.15
31,4823,generalization,most,plovs,10,property,otherbio,salience,long legs,0.4
31,8263,generalization,most,ollers,11,property,color,salience,copper stripes,0.47
31,4816,generalization,some,lorches,12,property,color,prevalence,gold feathers,0.2
31,4399,generalization,some,frams,13,property,otherbio,salience,smooth feathers,0.37
31,7439,generalization,some,javs,14,property,otherbio,salience,curly fur,0.31
31,5056,generalization,generic,mooks,15,property,color,salience,yellow fur,0.34
32,22238,generalization,some,crullets,0,category,color,salience,red scales,0.29
32,24033,generalization,generic,moxes,1,category,otherbio,prevalence,long tails,0.95
32,7810,generalization,generic,cheebas,2,category,color,prevalence,blue ears,0.94
32,15152,generalization,all,frams,3,category,color,salience,pink teeth,0.95
32,13516,generalization,some,zoovs,4,category,color,prevalence,copper spots,0.36
32,11118,generalization,most,stups,5,category,otherbio,salience,long teeth,0.55
32,15192,generalization,all,zorbs,6,category,otherbio,prevalence,curly fur,0.99
32,7076,generalization,all,ollers,7,category,color,prevalence,silver fur,0.98
32,12872,generalization,most,dorbs,8,category,otherbio,prevalence,soft scales,0.76
32,12788,generalization,most,morseths,9,category,otherbio,salience,small ears,0.51
32,7968,generalization,some,feps,10,category,otherbio,prevalence,sensitive spots,0.34
32,15021,generalization,generic,mooks,11,category,otherbio,salience,light shells,0.58
32,9550,generalization,all,thups,12,category,color,salience,purple feathers,0.5
32,12383,generalization,some,noobs,13,category,color,salience,green shells,0.23
32,8510,generalization,generic,luzaks,14,category,otherbio,salience,smooth feathers,0.5
32,7399,generalization,most,sapers,15,category,color,prevalence,orange tails,0.84
33,25786,generalization,all,zoovs,0,property,color,salience,silver stripes,0.76
33,27650,generalization,generic,frams,1,property,color,prevalence,purple shells,0.95
33,13318,generalization,all,thups,2,property,color,prevalence,pink legs,0.99
33,17387,generalization,generic,sapers,3,property,otherbio,salience,soft scales,0.61
33,9461,generalization,generic,zorbs,4,property,color,salience,blue teeth,0.82
33,12284,generalization,some,krivels,5,property,otherbio,prevalence,long legs,0.49
33,10685,generalization,generic,ackles,6,property,otherbio,prevalence,small ears,0.92
33,11836,generalization,most,glippets,7,property,otherbio,prevalence,thin stripes,0.91
33,13613,generalization,some,dorbs,8,property,color,salience,red feathers,0.39
33,10934,generalization,most,plovs,9,property,otherbio,salience,smooth feathers,0.93
33,9559,generalization,most,cheebas,10,property,color,prevalence,green tails,0.94
33,16596,generalization,most,moxes,11,property,otherbio,salience,long tails,0.86
33,7470,generalization,some,kazzes,12,property,otherbio,prevalence,light shells,0.5
33,18306,generalization,some,morseths,13,property,otherbio,salience,long teeth,0.55
33,11818,generalization,all,blins,14,property,color,salience,orange ears,0.98
33,8813,generalization,all,taifels,15,property,color,prevalence,yellow scales,0.99
34,20966,generalization,some,feps,0,property,otherbio,prevalence,long legs,0.52
34,10121,generalization,all,cheebas,1,property,otherbio,prevalence,long tails,1
34,4585,generalization,most,feps,2,property,color,salience,copper spots,0.79
34,3651,generalization,most,ackles,3,property,color,prevalence,gold stripes,0.79
34,5359,generalization,generic,noobs,4,property,color,salience,silver fur,1
34,3512,generalization,all,daiths,5,property,otherbio,salience,long teeth,1
34,3684,generalization,some,crullets,6,property,otherbio,salience,sensitive spots,0.32
34,4365,generalization,generic,glippets,7,property,otherbio,prevalence,smooth feathers,1
34,8095,generalization,all,thups,8,property,otherbio,salience,thin stripes,1
34,7554,generalization,most,taifels,9,property,color,prevalence,orange tails,0.72
34,6476,generalization,some,frams,10,property,otherbio,salience,small ears,0.25
34,5049,generalization,some,kweps,11,property,color,prevalence,pink teeth,0.19
34,3435,generalization,all,stups,12,property,color,prevalence,purple feathers,1
34,4688,generalization,generic,zoovs,13,property,color,salience,yellow legs,1
34,2984,generalization,generic,lorches,14,property,otherbio,prevalence,curly fur,1
34,2866,generalization,most,mooks,15,property,color,salience,blue ears,0.7
35,11069,generalization,all,krivels,0,property,color,prevalence,blue scales,0.72
35,4804,generalization,some,plovs,1,property,color,prevalence,orange shells,0.65
35,1655,generalization,generic,glippets,2,property,otherbio,salience,long teeth,0.49
35,1236,generalization,all,moxes,3,property,color,salience,red spots,0.65
35,2589,generalization,all,zorbs,4,property,otherbio,prevalence,sensitive spots,1
35,2138,generalization,generic,noobs,5,property,color,salience,copper stripes,0.62
35,1867,generalization,most,daiths,6,property,color,prevalence,gold feathers,0.85
35,1267,generalization,generic,lorches,7,property,otherbio,prevalence,light shells,0.73
35,2387,generalization,some,cheebas,8,property,otherbio,salience,thin stripes,0.44
35,1133,generalization,most,crullets,9,property,otherbio,salience,soft scales,0.63
35,1719,generalization,most,dorbs,10,property,otherbio,prevalence,smooth feathers,0.8
35,1314,generalization,most,stups,11,property,otherbio,salience,long tails,0.68
35,2525,generalization,some,kweps,12,property,otherbio,prevalence,long legs,0.49
35,885,generalization,generic,feps,13,property,color,prevalence,purple tails,0.67
35,3257,generalization,all,mooks,14,property,color,salience,green teeth,0.93
35,2611,generalization,some,ackles,15,property,color,salience,silver legs,0.58
36,17805,generalization,all,stups,0,category,otherbio,salience,smooth feathers,0.22
36,9577,generalization,some,krivels,1,category,otherbio,prevalence,curly fur,0.37
36,8544,generalization,most,trufts,2,category,color,prevalence,green shells,0.89
36,7579,generalization,all,feps,3,category,color,prevalence,pink teeth,1
36,7050,generalization,all,kweps,4,category,color,prevalence,orange tails,1
36,10466,generalization,some,ackles,5,category,otherbio,salience,thin stripes,0.16
36,8937,generalization,most,kazzes,6,category,otherbio,salience,small ears,0.32
36,12683,generalization,some,crullets,7,category,color,prevalence,copper spots,0.33
36,10314,generalization,generic,sapers,8,category,color,prevalence,gold stripes,1
36,14165,generalization,most,ollers,9,category,otherbio,salience,light shells,0.35
36,8216,generalization,all,thups,10,category,otherbio,salience,sensitive spots,0.38
36,6893,generalization,most,daiths,11,category,color,prevalence,purple feathers,0.92
36,8794,generalization,generic,javs,12,category,color,salience,blue ears,0.22
36,11695,generalization,some,dorbs,13,category,otherbio,salience,long tails,0.09
36,5467,generalization,generic,cheebas,14,category,otherbio,prevalence,long teeth,1
36,6390,generalization,generic,reesles,15,category,color,salience,silver fur,0.29
37,18993,generalization,all,thups,0,property,color,prevalence,purple tails,1
37,27043,generalization,all,crullets,1,property,otherbio,salience,long tails,0.7
37,15008,generalization,some,luzaks,2,property,otherbio,salience,smooth feathers,0.21
37,14343,generalization,all,blins,3,property,color,salience,red spots,0.87
37,13472,generalization,some,elleps,4,property,otherbio,prevalence,curly fur,0.5
37,18290,generalization,generic,noobs,5,property,otherbio,salience,small ears,0.88
37,16328,generalization,most,ackles,6,property,color,prevalence,blue scales,0.89
37,13241,generalization,generic,plovs,7,property,color,prevalence,gold feathers,1
37,8664,generalization,generic,cheebas,8,property,color,prevalence,silver legs,1
37,8714,generalization,most,moxes,9,property,color,prevalence,pink ears,0.87
37,17459,generalization,generic,taifels,10,property,color,salience,yellow fur,0.69
37,30062,generalization,most,daiths,11,property,otherbio,salience,long legs,0.52
37,10923,generalization,some,javs,12,property,color,salience,orange shells,0.35
37,10788,generalization,most,zoovs,13,property,otherbio,salience,sensitive spots,0.66
37,11452,generalization,all,dorbs,14,property,otherbio,prevalence,soft scales,1
37,17492,generalization,some,feps,15,property,otherbio,prevalence,light shells,0.53
38,17734,generalization,generic,kazzes,0,property,color,salience,green shells,0.8
38,10831,generalization,most,crullets,1,property,otherbio,prevalence,thin stripes,0.68
38,10936,generalization,all,mooks,2,property,color,salience,orange tails,0.49
38,9624,generalization,some,taifels,3,property,otherbio,prevalence,light shells,0.29
38,14407,generalization,most,ackles,4,property,otherbio,salience,long legs,0.77
38,10599,generalization,all,plovs,5,property,otherbio,salience,small ears,0.2
38,12623,generalization,most,noobs,6,property,color,salience,gold stripes,0.79
38,8208,generalization,some,sapers,7,property,color,salience,silver fur,0.54
38,9640,generalization,generic,glippets,8,property,color,salience,blue ears,0.68
38,8296,generalization,all,trufts,9,property,otherbio,prevalence,soft scales,1
38,11672,generalization,generic,lorches,10,property,color,prevalence,yellow legs,0.87
38,5784,generalization,all,elleps,11,property,otherbio,prevalence,long teeth,1
38,8167,generalization,most,ollers,12,property,otherbio,prevalence,long tails,0.79
38,11193,generalization,some,dorbs,13,property,color,salience,red scales,0.65
38,8400,generalization,generic,cheebas,14,property,color,prevalence,pink teeth,0.87
38,9672,generalization,some,kweps,15,property,otherbio,prevalence,curly fur,0.26
39,12712,generalization,most,luzaks,0,category,color,salience,pink teeth,1
39,10245,generalization,most,sapers,1,category,color,salience,green shells,0.64
39,9490,generalization,generic,elleps,2,category,color,prevalence,silver fur,1
39,11000,generalization,most,cheebas,3,category,otherbio,prevalence,long tails,0.76
39,6768,generalization,most,trufts,4,category,otherbio,prevalence,small ears,0.76
39,4392,generalization,generic,glippets,5,category,color,prevalence,blue ears,1
39,7864,generalization,some,lorches,6,category,color,prevalence,red scales,0.51
39,4808,generalization,some,crullets,7,category,otherbio,prevalence,light shells,0.51
39,7087,generalization,all,kazzes,8,category,color,salience,copper spots,1
39,8753,generalization,some,daiths,9,category,otherbio,salience,soft scales,0.35
39,8244,generalization,all,morseths,10,category,color,prevalence,orange tails,1
39,7254,generalization,generic,ollers,11,category,otherbio,salience,curly fur,0.79
39,8040,generalization,all,plovs,12,category,otherbio,salience,sensitive spots,1
39,4927,generalization,all,stups,13,category,color,prevalence,gold stripes,0.99
39,5032,generalization,some,noobs,14,category,otherbio,salience,thin stripes,0.33
39,4936,generalization,generic,javs,15,category,otherbio,salience,long teeth,0.98
40,26929,generalization,generic,cheebas,0,property,color,prevalence,green shells,0.78
40,17020,generalization,most,crullets,1,property,otherbio,prevalence,light shells,0.86
40,9326,generalization,some,glippets,2,property,color,prevalence,pink teeth,0.41
40,6702,generalization,generic,stups,3,property,color,prevalence,purple feathers,1
40,7570,generalization,all,feps,4,property,otherbio,prevalence,long teeth,0.98
40,14682,generalization,some,sapers,5,property,otherbio,salience,small ears,0.28
40,8590,generalization,generic,ackles,6,property,otherbio,salience,long tails,0.51
40,6457,generalization,most,javs,7,property,color,prevalence,blue ears,0.81
40,10138,generalization,most,blins,8,property,otherbio,salience,soft scales,0.62
40,5280,generalization,all,feps,9,property,otherbio,prevalence,thin stripes,0.98
40,10933,generalization,all,frams,10,property,otherbio,salience,sensitive spots,0.69
40,6412,generalization,some,reesles,11,property,otherbio,prevalence,smooth feathers,0.32
40,12060,generalization,generic,daiths,12,property,color,salience,gold stripes,0.72
40,7725,generalization,all,krivels,13,property,color,salience,red scales,0.86
40,7553,generalization,most,zorbs,14,property,color,salience,orange tails,0.5
40,7790,generalization,some,noobs,15,property,color,salience,copper spots,0.3
41,24454,generalization,some,morseths,0,category,color,salience,copper fur,0.41
41,8980,generalization,most,ludinos,1,category,otherbio,salience,long teeth,0.71
41,9529,generalization,most,dorbs,2,category,otherbio,prevalence,small ears,0.83
41,6998,generalization,all,ackles,3,category,otherbio,prevalence,soft scales,1
41,6753,generalization,most,cheebas,4,category,color,prevalence,orange ears,0.87
41,5179,generalization,generic,reesles,5,category,color,prevalence,purple shells,1
41,9661,generalization,some,taifels,6,category,color,salience,yellow scales,0.36
41,7126,generalization,generic,daiths,7,category,color,salience,blue teeth,0.12
41,4982,generalization,some,zoovs,8,category,color,prevalence,red feathers,0.26
41,4152,generalization,all,krivels,9,category,color,prevalence,gold spots,1
41,8183,generalization,all,noobs,10,category,otherbio,salience,long legs,0.75
41,27747,generalization,some,zorbs,11,category,color,prevalence,pink legs,0.2
41,8699,generalization,generic,frams,12,category,otherbio,salience,light shells,0.71
41,9319,generalization,all,javs,13,category,otherbio,salience,sensitive spots,0.75
41,8316,generalization,most,kweps,14,category,otherbio,salience,smooth feathers,0.21
41,4648,generalization,generic,ollers,15,category,otherbio,prevalence,curly fur,1
42,15967,generalization,most,noobs,0,category,color,prevalence,silver stripes,0.82
42,14552,generalization,some,frams,1,category,otherbio,prevalence,long legs,0.24
42,11129,generalization,generic,elleps,2,category,otherbio,salience,sensitive spots,1
42,7607,generalization,most,krivels,3,category,color,salience,orange ears,0.75
42,41000,generalization,generic,lorches,4,category,otherbio,prevalence,soft scales,1
42,4596,generalization,all,ackles,5,category,otherbio,prevalence,curly fur,0.98
42,4900,generalization,some,cheebas,6,category,color,salience,red feathers,0.27
42,12144,generalization,all,daiths,7,category,otherbio,salience,smooth feathers,1
42,8380,generalization,generic,feps,8,category,otherbio,prevalence,small ears,0.95
42,6721,generalization,some,taifels,9,category,color,prevalence,pink legs,0.77
42,7844,generalization,all,blins,10,category,color,prevalence,yellow scales,1
42,4311,generalization,most,crullets,11,category,otherbio,salience,thin stripes,0.69
42,5566,generalization,all,zorbs,12,category,color,salience,green tails,1
42,4546,generalization,some,reesles,13,category,color,salience,copper fur,0.22
42,5821,generalization,generic,sapers,14,category,otherbio,salience,long tails,0.99
42,4994,generalization,most,kazzes,15,category,color,prevalence,gold spots,0.75
43,15657,generalization,all,lorches,0,property,color,prevalence,green shells,0.99
43,16345,generalization,generic,taifels,1,property,color,salience,orange tails,0.47
43,12733,generalization,generic,kazzes,2,property,color,prevalence,blue ears,0.8
43,7808,generalization,most,mooks,3,property,color,salience,copper spots,0.37
43,7447,generalization,some,crullets,4,property,otherbio,prevalence,long teeth,0.52
43,8897,generalization,most,noobs,5,property,color,salience,gold stripes,0.58
43,7583,generalization,some,reesles,6,property,otherbio,prevalence,thin stripes,0.22
43,13757,generalization,generic,sapers,7,property,otherbio,prevalence,smooth feathers,0.89
43,4995,generalization,most,cheebas,8,property,otherbio,prevalence,light shells,0.75
43,6052,generalization,some,dorbs,9,property,color,salience,purple feathers,0.46
43,9539,generalization,some,frams,10,property,color,salience,silver fur,0.27
43,6266,generalization,all,moxes,11,property,otherbio,salience,sensitive spots,1
43,8696,generalization,all,daiths,12,property,color,salience,pink teeth,0.98
43,6119,generalization,most,stups,13,property,otherbio,prevalence,small ears,0.87
43,8392,generalization,all,feps,14,property,otherbio,prevalence,curly fur,0.99
43,7110,generalization,generic,glippets,15,property,otherbio,salience,long tails,0.61
44,19937,generalization,all,reesles,0,category,color,prevalence,copper spots,1
44,10856,generalization,most,zorbs,1,category,otherbio,prevalence,long teeth,0.86
44,16618,generalization,some,crullets,2,category,otherbio,salience,soft scales,0.37
44,7032,generalization,all,javs,3,category,color,prevalence,red scales,1
44,15260,generalization,all,blins,4,category,otherbio,salience,curly fur,1
44,249477,generalization,most,feps,5,category,color,salience,pink teeth,0.75
44,8475,generalization,some,sapers,6,category,otherbio,prevalence,light shells,0.44
44,9819,generalization,all,ludinos,7,category,color,salience,orange tails,1
44,11301,generalization,generic,cheebas,8,category,color,salience,purple feathers,0.94
44,6615,generalization,generic,ollers,9,category,otherbio,prevalence,long legs,1
44,7498,generalization,generic,noobs,10,category,otherbio,prevalence,sensitive spots,1
44,4928,generalization,some,daiths,11,category,color,prevalence,silver fur,0.44
44,4058,generalization,most,stups,12,category,color,prevalence,yellow legs,0.82
44,6450,generalization,generic,krivels,13,category,otherbio,salience,long tails,0.93
44,254682,generalization,some,thups,14,category,color,salience,green shells,0.42
44,12139,generalization,most,kweps,15,category,otherbio,salience,smooth feathers,0.75
45,21799,generalization,some,trufts,0,category,otherbio,prevalence,smooth feathers,0.46
45,7023,generalization,all,javs,1,category,otherbio,prevalence,small ears,1
45,5593,generalization,all,dorbs,2,category,color,salience,green tails,0.74
45,7591,generalization,most,krivels,3,category,color,prevalence,silver stripes,0.85
45,6904,generalization,most,feps,4,category,color,prevalence,copper fur,0.84
45,5080,generalization,generic,stups,5,category,otherbio,prevalence,thin stripes,0.94
45,4615,generalization,some,elleps,6,category,otherbio,salience,long tails,0.26
45,3019,generalization,all,mooks,7,category,color,prevalence,red feathers,1
45,8160,generalization,all,thups,8,category,color,salience,yellow scales,0.8
45,3831,generalization,some,plovs,9,category,otherbio,prevalence,soft scales,0.4
45,4192,generalization,some,kweps,10,category,otherbio,salience,light shells,0.29
45,4560,generalization,generic,sapers,11,category,color,prevalence,orange ears,0.93
45,4352,generalization,generic,lorches,12,category,otherbio,salience,curly fur,0.74
45,6392,generalization,most,blins,13,category,otherbio,salience,long teeth,0.59
45,5664,generalization,most,noobs,14,category,color,salience,blue teeth,0.76
45,5936,generalization,generic,taifels,15,category,color,salience,purple shells,0.83
46,6920,generalization,all,taifels,0,category,color,prevalence,silver stripes,1
46,6071,generalization,generic,kweps,1,category,color,prevalence,yellow scales,0.76
46,3415,generalization,most,zorbs,2,category,otherbio,prevalence,long legs,0.77
46,7886,generalization,most,cheebas,3,category,otherbio,salience,light shells,0.63
46,4157,generalization,all,luzaks,4,category,color,prevalence,green tails,1
46,2995,generalization,some,plovs,5,category,color,prevalence,copper fur,0.27
46,6447,generalization,all,noobs,6,category,otherbio,salience,sensitive spots,0.87
46,4709,generalization,most,krivels,7,category,color,salience,blue teeth,0.81
46,2188,generalization,some,feps,8,category,otherbio,salience,long tails,0.2
46,2147,generalization,generic,ollers,9,category,otherbio,salience,long teeth,0.51
46,3453,generalization,generic,blins,10,category,otherbio,salience,thin stripes,0.24
46,1880,generalization,some,feps,11,category,otherbio,salience,soft scales,0.15
46,2408,generalization,generic,crullets,12,category,color,prevalence,pink legs,0.38
46,2514,generalization,all,frams,13,category,color,salience,gold spots,0.96
46,2344,generalization,most,daiths,14,category,otherbio,prevalence,curly fur,0.76
46,2012,generalization,some,ludinos,15,category,color,prevalence,purple shells,0.27
47,14968,generalization,generic,noobs,0,property,color,salience,pink legs,0.74
47,7154,generalization,some,mooks,1,property,color,salience,red feathers,0.5
47,8721,generalization,generic,taifels,2,property,otherbio,prevalence,long tails,0.87
47,7600,generalization,all,crullets,3,property,otherbio,prevalence,long legs,0.85
47,8385,generalization,generic,sapers,4,property,otherbio,prevalence,smooth feathers,0.88
47,4784,generalization,some,kazzes,5,property,otherbio,prevalence,thin stripes,0.84
47,4601,generalization,all,javs,6,property,color,salience,yellow scales,0.49
47,5001,generalization,some,reesles,7,property,color,prevalence,gold spots,0.74
47,5136,generalization,most,luzaks,8,property,color,prevalence,blue teeth,0.37
47,5977,generalization,all,thups,9,property,otherbio,prevalence,light shells,0.27
47,3768,generalization,generic,lorches,10,property,otherbio,salience,long teeth,0.71
47,4864,generalization,most,feps,11,property,otherbio,prevalence,soft scales,0.64
47,8073,generalization,most,feps,12,property,color,salience,silver stripes,0.82
47,6042,generalization,some,glippets,13,property,color,salience,green tails,0.31
47,6080,generalization,most,moxes,14,property,color,salience,purple shells,0.59
47,8305,generalization,all,stups,15,property,otherbio,salience,sensitive spots,0.93
48,22479,generalization,generic,ollers,0,property,otherbio,salience,sensitive spots,0.48
48,7871,generalization,generic,kweps,1,property,otherbio,salience,curly fur,0.3
48,19115,generalization,some,cheebas,2,property,color,prevalence,gold spots,0.38
48,9878,generalization,generic,noobs,3,property,otherbio,prevalence,smooth feathers,0.85
48,10536,generalization,generic,ludinos,4,property,color,prevalence,yellow scales,0.82
48,4015,generalization,some,dorbs,5,property,color,salience,silver stripes,0.32
48,5656,generalization,some,daiths,6,property,otherbio,prevalence,thin stripes,0.25
48,13702,generalization,most,mooks,7,property,color,salience,copper fur,0.63
48,7462,generalization,most,javs,8,property,otherbio,prevalence,soft scales,0.72
48,11763,generalization,all,glippets,9,property,otherbio,salience,light shells,0.6
48,8184,generalization,most,feps,10,property,color,prevalence,purple shells,0.72
48,8728,generalization,most,stups,11,property,color,salience,blue teeth,0.39
48,4760,generalization,all,zoovs,12,property,otherbio,prevalence,long teeth,0.99
48,8308,generalization,some,sapers,13,property,color,salience,red feathers,0.57
48,9700,generalization,all,reesles,14,property,color,salience,green tails,0.45
48,5940,generalization,all,plovs,15,property,otherbio,prevalence,long tails,0.99
49,13183,generalization,all,ludinos,0,category,otherbio,prevalence,soft scales,1
49,7030,generalization,most,daiths,1,category,color,prevalence,orange ears,0.67
49,8777,generalization,generic,sapers,2,category,color,prevalence,copper fur,1
49,4668,generalization,some,zorbs,3,category,otherbio,prevalence,long tails,0.29
49,11643,generalization,generic,elleps,4,category,otherbio,salience,curly fur,0.67
49,4815,generalization,most,crullets,5,category,color,prevalence,yellow scales,0.8
49,6134,generalization,generic,kweps,6,category,otherbio,salience,sensitive spots,0.32
49,12738,generalization,all,dorbs,7,category,otherbio,salience,long legs,1
49,115196,generalization,some,javs,8,category,otherbio,salience,small ears,0.21
49,4847,generalization,most,cheebas,9,category,otherbio,salience,smooth feathers,0.72
49,3107,generalization,generic,luzaks,10,category,color,prevalence,green tails,1
49,4304,generalization,most,lorches,11,category,color,salience,gold spots,0.65
49,4332,generalization,all,krivels,12,category,color,salience,red feathers,1
49,4124,generalization,some,reesles,13,category,color,prevalence,pink legs,0.23
49,2778,generalization,all,moxes,14,category,otherbio,prevalence,thin stripes,1
49,3783,generalization,some,ollers,15,category,color,salience,silver stripes,0.24
