workerid,rt,trial_type,stim_type,trial_num,stim_determiner,stim_prevalence,stim_property,response,stim_category
0,5421,truth_conditions,accidental,0,generic,10,rotting shells,Disagree,blins
0,3128,truth_conditions,vague,1,generic,90,long tails,Agree,ollers
0,2741,truth_conditions,color,2,generic,30,orange tails,Disagree,cheebas
0,2048,truth_conditions,color,3,generic,70,purple feathers,Agree,grinks
0,1760,truth_conditions,vague,4,generic,10,long teeth,Disagree,taifels
0,1815,truth_conditions,vague,5,generic,90,soft scales,Agree,elleps
0,1992,truth_conditions,accidental,6,generic,90,sore teeth,Agree,javs
0,2357,truth_conditions,accidental,7,generic,50,fungus-covered claws,Agree,daiths
0,1906,truth_conditions,accidental,8,generic,50,swollen ears,Agree,zoovs
0,1942,truth_conditions,vague,9,generic,30,small ears,Disagree,glippets
0,1686,truth_conditions,accidental,10,generic,90,muddy feathers,Agree,mooks
0,1354,truth_conditions,vague,11,generic,30,light shells,Disagree,reesles
0,1438,truth_conditions,accidental,12,generic,70,cracked shells,Agree,frams
0,1325,truth_conditions,accidental,13,generic,10,broken legs,Disagree,krivels
0,1023,truth_conditions,vague,14,generic,70,curly fur,Agree,zorbs
0,1229,truth_conditions,color,15,generic,50,gold spots,Disagree,wugs
0,1100,truth_conditions,color,16,generic,90,yellow fur,Agree,lorches
0,972,truth_conditions,color,17,generic,10,green shells,Disagree,plovs
0,1234,truth_conditions,color,18,generic,50,red scales,Disagree,sapers
0,959,truth_conditions,vague,19,generic,70,long legs,Agree,morseths
0,1025,truth_conditions,accidental,20,generic,30,itchy skin,Disagree,kazzes
0,957,truth_conditions,color,21,generic,70,copper stripes,Agree,kweps
0,1076,truth_conditions,color,22,generic,10,orange ears,Disagree,moxes
0,1184,truth_conditions,accidental,23,generic,70,wet fur,Agree,luzaks
0,1300,truth_conditions,vague,24,generic,50,thin stripes,Disagree,pangolins
0,940,truth_conditions,color,25,generic,90,silver legs,Agree,trufts
0,1010,truth_conditions,accidental,26,generic,30,infected scales,Disagree,stups
0,1284,truth_conditions,vague,27,generic,10,smooth feathers,Disagree,ackles
0,1040,truth_conditions,color,28,generic,30,pink teeth,Disagree,thups
0,1133,truth_conditions,vague,29,generic,50,sensitive spots,Disagree,dorbs
1,8599,truth_conditions,color,0,generic,90,orange ears,Disagree,pangolins
1,5580,truth_conditions,accidental,1,generic,30,wet fur,Agree,moxes
1,3015,truth_conditions,color,2,generic,70,green shells,Agree,dorbs
1,6368,truth_conditions,vague,3,generic,30,small ears,Disagree,elleps
1,2577,truth_conditions,color,4,generic,90,orange tails,Agree,cheebas
1,4583,truth_conditions,vague,5,generic,50,light shells,Agree,morseths
1,4304,truth_conditions,vague,6,generic,50,sensitive spots,Agree,luzaks
1,1855,truth_conditions,accidental,7,generic,70,rotting shells,Agree,zoovs
1,1935,truth_conditions,vague,8,generic,10,thin stripes,Disagree,krivels
1,4199,truth_conditions,color,9,generic,70,gold spots,Agree,kweps
1,2896,truth_conditions,color,10,generic,10,copper stripes,Disagree,zorbs
1,2552,truth_conditions,color,11,generic,30,pink teeth,Disagree,sapers
1,2539,truth_conditions,color,12,generic,50,purple feathers,Disagree,blins
1,2141,truth_conditions,vague,13,generic,70,long legs,Agree,taifels
1,2640,truth_conditions,accidental,14,generic,10,sore teeth,Disagree,trufts
1,2352,truth_conditions,vague,15,generic,70,soft scales,Agree,lorches
1,1875,truth_conditions,accidental,16,generic,30,swollen ears,Disagree,frams
1,4110,truth_conditions,vague,17,generic,90,smooth feathers,Agree,wugs
1,2719,truth_conditions,color,18,generic,30,red scales,Disagree,ackles
1,2455,truth_conditions,color,19,generic,10,yellow fur,Disagree,daiths
1,2599,truth_conditions,accidental,20,generic,90,muddy feathers,Agree,grinks
1,2016,truth_conditions,vague,21,generic,10,curly fur,Disagree,thups
1,1928,truth_conditions,accidental,22,generic,50,itchy skin,Disagree,stups
1,2616,truth_conditions,vague,23,generic,90,long teeth,Agree,plovs
1,2712,truth_conditions,color,24,generic,50,silver legs,Disagree,javs
1,1952,truth_conditions,accidental,25,generic,90,fungus-covered claws,Agree,kazzes
1,1816,truth_conditions,accidental,26,generic,50,broken legs,Disagree,ollers
1,2328,truth_conditions,accidental,27,generic,10,infected scales,Disagree,glippets
1,1856,truth_conditions,vague,28,generic,30,long tails,Disagree,reesles
1,1845,truth_conditions,accidental,29,generic,70,cracked shells,Agree,mooks
2,10044,truth_conditions,color,0,generic,70,green shells,Disagree,frams
2,7917,truth_conditions,accidental,1,generic,70,swollen ears,Disagree,luzaks
2,4374,truth_conditions,accidental,2,generic,30,wet fur,Disagree,krivels
2,3838,truth_conditions,accidental,3,generic,70,cracked shells,Disagree,plovs
2,7893,truth_conditions,vague,4,generic,10,smooth feathers,Disagree,mooks
2,9862,truth_conditions,vague,5,generic,90,curly fur,Disagree,morseths
2,3066,truth_conditions,accidental,6,generic,10,sore teeth,Disagree,zorbs
2,4906,truth_conditions,color,7,generic,30,silver legs,Disagree,reesles
2,12240,truth_conditions,color,8,generic,90,gold spots,Disagree,taifels
2,4277,truth_conditions,accidental,9,generic,90,fungus-covered claws,Disagree,dorbs
2,3728,truth_conditions,vague,10,generic,30,long teeth,Disagree,sapers
2,2632,truth_conditions,color,11,generic,30,yellow fur,Disagree,elleps
2,7086,truth_conditions,color,12,generic,90,purple feathers,Disagree,trufts
2,3463,truth_conditions,color,13,generic,10,orange tails,Disagree,stups
2,3300,truth_conditions,color,14,generic,70,orange ears,Disagree,wugs
2,2504,truth_conditions,accidental,15,generic,50,itchy skin,Disagree,daiths
2,2191,truth_conditions,vague,16,generic,50,sensitive spots,Disagree,ackles
2,1684,truth_conditions,vague,17,generic,70,long tails,Disagree,moxes
2,1958,truth_conditions,vague,18,generic,30,soft scales,Disagree,glippets
2,2799,truth_conditions,accidental,19,generic,50,infected scales,Disagree,kweps
2,2480,truth_conditions,vague,20,generic,10,small ears,Disagree,thups
2,2253,truth_conditions,color,21,generic,50,red scales,Disagree,cheebas
2,2767,truth_conditions,color,22,generic,10,copper stripes,Disagree,lorches
2,2408,truth_conditions,accidental,23,generic,10,broken legs,Disagree,grinks
2,2721,truth_conditions,vague,24,generic,50,light shells,Disagree,ollers
2,2303,truth_conditions,accidental,25,generic,90,muddy feathers,Disagree,javs
2,1992,truth_conditions,vague,26,generic,90,long legs,Disagree,blins
2,2031,truth_conditions,color,27,generic,50,pink teeth,Disagree,zoovs
2,2890,truth_conditions,vague,28,generic,70,thin stripes,Disagree,pangolins
2,2314,truth_conditions,accidental,29,generic,30,rotting shells,Disagree,kazzes
3,6547,truth_conditions,accidental,0,generic,30,fungus-covered claws,Disagree,glippets
3,6181,truth_conditions,accidental,1,generic,10,infected scales,Disagree,kazzes
3,8857,truth_conditions,color,2,generic,90,red scales,Disagree,daiths
3,2706,truth_conditions,accidental,3,generic,30,sore teeth,Disagree,zorbs
3,3239,truth_conditions,color,4,generic,70,copper stripes,Disagree,javs
3,2600,truth_conditions,accidental,5,generic,70,muddy feathers,Disagree,elleps
3,4321,truth_conditions,color,6,generic,90,purple feathers,Disagree,kweps
3,2896,truth_conditions,accidental,7,generic,70,itchy skin,Disagree,reesles
3,3872,truth_conditions,vague,8,generic,10,small ears,Disagree,trufts
3,2904,truth_conditions,vague,9,generic,70,thin stripes,Disagree,taifels
3,2182,truth_conditions,vague,10,generic,50,light shells,Disagree,mooks
3,2946,truth_conditions,vague,11,generic,30,curly fur,Disagree,plovs
3,2318,truth_conditions,vague,12,generic,10,long tails,Disagree,krivels
3,1764,truth_conditions,vague,13,generic,50,long teeth,Disagree,lorches
3,1976,truth_conditions,vague,14,generic,30,smooth feathers,Disagree,stups
3,2728,truth_conditions,accidental,15,generic,90,cracked shells,Disagree,wugs
3,4365,truth_conditions,color,16,generic,10,orange ears,Disagree,ollers
3,3330,truth_conditions,vague,17,generic,90,long legs,Disagree,blins
3,1605,truth_conditions,accidental,18,generic,50,broken legs,Disagree,morseths
3,2394,truth_conditions,accidental,19,generic,50,wet fur,Disagree,thups
3,1850,truth_conditions,color,20,generic,30,pink teeth,Disagree,zoovs
3,2823,truth_conditions,vague,21,generic,90,sensitive spots,Disagree,pangolins
3,2021,truth_conditions,accidental,22,generic,90,swollen ears,Disagree,moxes
3,2538,truth_conditions,color,23,generic,50,yellow fur,Disagree,frams
3,1914,truth_conditions,color,24,generic,30,green shells,Disagree,sapers
3,1680,truth_conditions,color,25,generic,10,gold spots,Disagree,ackles
3,3233,truth_conditions,color,26,generic,70,silver legs,Disagree,luzaks
3,3312,truth_conditions,vague,27,generic,70,soft scales,Disagree,dorbs
3,2241,truth_conditions,color,28,generic,50,orange tails,Disagree,cheebas
3,1407,truth_conditions,accidental,29,generic,10,rotting shells,Disagree,grinks
4,3846,truth_conditions,color,0,generic,10,orange ears,Disagree,zorbs
4,1507,truth_conditions,vague,1,generic,90,small ears,Agree,cheebas
4,3379,truth_conditions,color,2,generic,50,red scales,Disagree,stups
4,1561,truth_conditions,accidental,3,generic,10,infected scales,Agree,dorbs
4,2496,truth_conditions,accidental,4,generic,30,sore teeth,Disagree,thups
4,1397,truth_conditions,vague,5,generic,30,curly fur,Agree,krivels
4,2916,truth_conditions,color,6,generic,30,pink teeth,Disagree,frams
4,1200,truth_conditions,vague,7,generic,70,smooth feathers,Agree,grinks
4,1540,truth_conditions,vague,8,generic,10,thin stripes,Disagree,reesles
4,8806,truth_conditions,accidental,9,generic,90,broken legs,Disagree,sapers
4,3842,truth_conditions,vague,10,generic,10,sensitive spots,Agree,lorches
4,1536,truth_conditions,accidental,11,generic,90,swollen ears,Disagree,taifels
4,5329,truth_conditions,color,12,generic,30,yellow fur,Disagree,kazzes
4,69272,truth_conditions,accidental,13,generic,50,itchy skin,Agree,luzaks
4,5017,truth_conditions,accidental,14,generic,30,wet fur,Disagree,daiths
4,9981,truth_conditions,vague,15,generic,50,soft scales,Agree,javs
4,3255,truth_conditions,color,16,generic,90,purple feathers,Agree,moxes
4,2318,truth_conditions,vague,17,generic,50,long legs,Agree,zoovs
4,5573,truth_conditions,vague,18,generic,70,light shells,Agree,ackles
4,1792,truth_conditions,color,19,generic,10,orange tails,Disagree,ollers
4,3421,truth_conditions,color,20,generic,50,copper stripes,Agree,morseths
4,6246,truth_conditions,color,21,generic,70,gold spots,Agree,blins
4,2927,truth_conditions,accidental,22,generic,70,rotting shells,Agree,elleps
4,7175,truth_conditions,color,23,generic,70,green shells,Agree,pangolins
4,3905,truth_conditions,vague,24,generic,30,long tails,Disagree,mooks
4,2824,truth_conditions,color,25,generic,90,silver legs,Agree,kweps
4,3041,truth_conditions,accidental,26,generic,70,cracked shells,Agree,glippets
4,2107,truth_conditions,accidental,27,generic,50,muddy feathers,Agree,trufts
4,3383,truth_conditions,accidental,28,generic,10,fungus-covered claws,Disagree,wugs
4,2176,truth_conditions,vague,29,generic,90,long teeth,Agree,plovs
5,8945,implied_prevalence,color,0,generic,NA,red scales,90,grinks
5,11413,implied_prevalence,vague,1,generic,NA,curly fur,65,thups
5,7697,implied_prevalence,color,2,generic,NA,copper stripes,85,ackles
5,5728,implied_prevalence,vague,3,generic,NA,long teeth,93,lorches
5,4232,implied_prevalence,accidental,4,generic,NA,wet fur,50,zoovs
5,8393,implied_prevalence,vague,5,generic,NA,smooth feathers,65,blins
5,5603,implied_prevalence,vague,6,generic,NA,long legs,80,sapers
5,4874,implied_prevalence,accidental,7,generic,NA,muddy feathers,30,zorbs
5,4570,implied_prevalence,accidental,8,generic,NA,swollen ears,40,dorbs
5,6132,implied_prevalence,vague,9,generic,NA,long tails,80,glippets
5,4081,implied_prevalence,accidental,10,generic,NA,itchy skin,60,elleps
5,8832,implied_prevalence,color,11,generic,NA,gold spots,87,wugs
5,7904,implied_prevalence,color,12,generic,NA,green shells,90,mooks
5,4346,implied_prevalence,vague,13,generic,NA,light shells,87,morseths
5,5399,implied_prevalence,vague,14,generic,NA,sensitive spots,95,cheebas
5,4924,implied_prevalence,accidental,15,generic,NA,broken legs,10,kazzes
5,2900,implied_prevalence,accidental,16,generic,NA,rotting shells,5,moxes
5,3548,implied_prevalence,color,17,generic,NA,yellow fur,90,krivels
5,4625,implied_prevalence,accidental,18,generic,NA,cracked shells,15,frams
5,8917,implied_prevalence,color,19,generic,NA,silver legs,80,stups
5,4597,implied_prevalence,vague,20,generic,NA,small ears,50,javs
5,2859,implied_prevalence,color,21,generic,NA,orange tails,90,daiths
5,3550,implied_prevalence,accidental,22,generic,NA,sore teeth,25,plovs
5,4918,implied_prevalence,color,23,generic,NA,orange ears,85,pangolins
5,5210,implied_prevalence,color,24,generic,NA,pink teeth,90,kweps
5,5404,implied_prevalence,vague,25,generic,NA,soft scales,60,taifels
5,4338,implied_prevalence,color,26,generic,NA,purple feathers,87,trufts
5,7901,implied_prevalence,accidental,27,generic,NA,fungus-covered claws,30,ollers
5,6076,implied_prevalence,vague,28,generic,NA,thin stripes,65,reesles
5,4074,implied_prevalence,accidental,29,generic,NA,infected scales,10,luzaks
6,5509,implied_prevalence,color,0,generic,NA,green shells,100,plovs
6,6096,implied_prevalence,color,1,generic,NA,gold spots,95,krivels
6,4204,implied_prevalence,vague,2,generic,NA,light shells,100,ackles
6,4120,implied_prevalence,vague,3,generic,NA,small ears,95,zoovs
6,3296,implied_prevalence,color,4,generic,NA,purple feathers,99,grinks
6,5138,implied_prevalence,accidental,5,generic,NA,wet fur,90,blins
6,4156,implied_prevalence,color,6,generic,NA,orange ears,99,frams
6,5074,implied_prevalence,color,7,generic,NA,yellow fur,98,kazzes
6,3510,implied_prevalence,color,8,generic,NA,copper stripes,99,zorbs
6,3507,implied_prevalence,color,9,generic,NA,silver legs,96,javs
6,3187,implied_prevalence,vague,10,generic,NA,long legs,100,thups
6,2516,implied_prevalence,color,11,generic,NA,orange tails,99,reesles
6,4296,implied_prevalence,accidental,12,generic,NA,broken legs,70,luzaks
6,3004,implied_prevalence,vague,13,generic,NA,curly fur,85,morseths
6,2862,implied_prevalence,vague,14,generic,NA,smooth feathers,90,elleps
6,2696,implied_prevalence,accidental,15,generic,NA,fungus-covered claws,95,mooks
6,2260,implied_prevalence,accidental,16,generic,NA,itchy skin,95,pangolins
6,133825,implied_prevalence,vague,17,generic,NA,long tails,95,ollers
6,2950,implied_prevalence,vague,18,generic,NA,thin stripes,95,kweps
6,2838,implied_prevalence,accidental,19,generic,NA,swollen ears,95,glippets
6,2848,implied_prevalence,accidental,20,generic,NA,cracked shells,100,trufts
6,2516,implied_prevalence,color,21,generic,NA,red scales,97,moxes
6,2576,implied_prevalence,accidental,22,generic,NA,sore teeth,96,lorches
6,2604,implied_prevalence,color,23,generic,NA,pink teeth,99,cheebas
6,3026,implied_prevalence,accidental,24,generic,NA,infected scales,97,taifels
6,2962,implied_prevalence,vague,25,generic,NA,sensitive spots,90,daiths
6,2966,implied_prevalence,vague,26,generic,NA,long teeth,90,stups
6,2414,implied_prevalence,accidental,27,generic,NA,muddy feathers,95,sapers
6,3141,implied_prevalence,accidental,28,generic,NA,rotting shells,95,wugs
6,4112,implied_prevalence,vague,29,generic,NA,soft scales,85,dorbs
7,8541,implied_prevalence,accidental,0,generic,NA,itchy skin,75,taifels
7,10422,implied_prevalence,accidental,1,generic,NA,infected scales,55,zorbs
7,5598,implied_prevalence,color,2,generic,NA,orange tails,89,daiths
7,5136,implied_prevalence,color,3,generic,NA,orange ears,95,cheebas
7,10161,implied_prevalence,color,4,generic,NA,gold spots,68,lorches
7,7198,implied_prevalence,vague,5,generic,NA,long tails,85,trufts
7,13311,implied_prevalence,accidental,6,generic,NA,wet fur,60,krivels
7,5767,implied_prevalence,vague,7,generic,NA,light shells,99,plovs
7,5847,implied_prevalence,vague,8,generic,NA,soft scales,99,ackles
7,6615,implied_prevalence,accidental,9,generic,NA,sore teeth,71,javs
7,5814,implied_prevalence,vague,10,generic,NA,long teeth,65,zoovs
7,9583,implied_prevalence,color,11,generic,NA,purple feathers,94,elleps
7,7719,implied_prevalence,color,12,generic,NA,copper stripes,86,wugs
7,5735,implied_prevalence,accidental,13,generic,NA,rotting shells,25,kweps
7,5167,implied_prevalence,color,14,generic,NA,pink teeth,15,pangolins
7,5847,implied_prevalence,vague,15,generic,NA,thin stripes,88,ollers
7,7911,implied_prevalence,accidental,16,generic,NA,swollen ears,35,glippets
7,4415,implied_prevalence,accidental,17,generic,NA,cracked shells,15,blins
7,6542,implied_prevalence,color,18,generic,NA,green shells,88,sapers
7,10456,implied_prevalence,vague,19,generic,NA,sensitive spots,45,reesles
7,4191,implied_prevalence,color,20,generic,NA,red scales,67,dorbs
7,4407,implied_prevalence,color,21,generic,NA,silver legs,98,stups
7,6503,implied_prevalence,vague,22,generic,NA,long legs,96,luzaks
7,8279,implied_prevalence,color,23,generic,NA,yellow fur,57,moxes
7,5623,implied_prevalence,accidental,24,generic,NA,broken legs,10,thups
7,7111,implied_prevalence,accidental,25,generic,NA,muddy feathers,12,grinks
7,5207,implied_prevalence,accidental,26,generic,NA,fungus-covered claws,20,morseths
7,4495,implied_prevalence,vague,27,generic,NA,curly fur,65,frams
7,3743,implied_prevalence,vague,28,generic,NA,small ears,87,kazzes
7,4479,implied_prevalence,vague,29,generic,NA,smooth feathers,78,mooks
8,9101,implied_prevalence,color,0,generic,NA,green shells,100,trufts
8,5457,implied_prevalence,color,1,generic,NA,orange ears,100,sapers
8,4059,implied_prevalence,vague,2,generic,NA,long teeth,75,pangolins
8,4200,implied_prevalence,accidental,3,generic,NA,wet fur,20,ollers
8,3348,implied_prevalence,vague,4,generic,NA,thin stripes,90,ackles
8,2234,implied_prevalence,color,5,generic,NA,copper stripes,100,lorches
8,2271,implied_prevalence,color,6,generic,NA,yellow fur,100,elleps
8,2533,implied_prevalence,vague,7,generic,NA,smooth feathers,100,mooks
8,2460,implied_prevalence,vague,8,generic,NA,long legs,85,thups
8,3559,implied_prevalence,vague,9,generic,NA,light shells,60,glippets
8,4132,implied_prevalence,vague,10,generic,NA,small ears,95,cheebas
8,1758,implied_prevalence,color,11,generic,NA,purple feathers,100,wugs
8,1745,implied_prevalence,vague,12,generic,NA,curly fur,100,blins
8,1967,implied_prevalence,accidental,13,generic,NA,rotting shells,20,kweps
8,3245,implied_prevalence,vague,14,generic,NA,sensitive spots,25,daiths
8,2746,implied_prevalence,color,15,generic,NA,silver legs,95,luzaks
8,2512,implied_prevalence,accidental,16,generic,NA,itchy skin,15,dorbs
8,2345,implied_prevalence,color,17,generic,NA,pink teeth,95,grinks
8,2016,implied_prevalence,vague,18,generic,NA,soft scales,80,taifels
8,1608,implied_prevalence,vague,19,generic,NA,long tails,100,reesles
8,2087,implied_prevalence,accidental,20,generic,NA,broken legs,5,stups
8,1932,implied_prevalence,color,21,generic,NA,gold spots,95,morseths
8,2017,implied_prevalence,accidental,22,generic,NA,infected scales,15,zoovs
8,2145,implied_prevalence,accidental,23,generic,NA,muddy feathers,25,krivels
8,2184,implied_prevalence,accidental,24,generic,NA,sore teeth,10,plovs
8,2638,implied_prevalence,accidental,25,generic,NA,cracked shells,25,javs
8,2767,implied_prevalence,accidental,26,generic,NA,fungus-covered claws,3,zorbs
8,1876,implied_prevalence,accidental,27,generic,NA,swollen ears,6,moxes
8,2648,implied_prevalence,color,28,generic,NA,red scales,100,kazzes
8,1690,implied_prevalence,color,29,generic,NA,orange tails,10,frams
9,9366,truth_conditions,color,0,generic,90,orange tails,Disagree,lorches
9,2877,truth_conditions,vague,1,generic,10,smooth feathers,Disagree,pangolins
9,4365,truth_conditions,color,2,generic,70,orange ears,Disagree,moxes
9,2261,truth_conditions,accidental,3,generic,10,broken legs,Disagree,wugs
9,2891,truth_conditions,accidental,4,generic,30,swollen ears,Disagree,glippets
9,1858,truth_conditions,vague,5,generic,10,long teeth,Disagree,reesles
9,1516,truth_conditions,vague,6,generic,50,light shells,Disagree,luzaks
9,1867,truth_conditions,vague,7,generic,70,small ears,Disagree,plovs
9,2566,truth_conditions,accidental,8,generic,50,fungus-covered claws,Disagree,cheebas
9,1225,truth_conditions,color,9,generic,30,red scales,Disagree,daiths
9,1180,truth_conditions,accidental,10,generic,70,muddy feathers,Disagree,elleps
9,1158,truth_conditions,accidental,11,generic,50,cracked shells,Disagree,ollers
9,1327,truth_conditions,color,12,generic,50,pink teeth,Disagree,thups
9,1473,truth_conditions,vague,13,generic,30,sensitive spots,Disagree,kweps
9,967,truth_conditions,vague,14,generic,50,long tails,Disagree,trufts
9,1507,truth_conditions,vague,15,generic,90,long legs,Disagree,zoovs
9,1193,truth_conditions,color,16,generic,90,green shells,Disagree,stups
9,1440,truth_conditions,vague,17,generic,30,thin stripes,Disagree,morseths
9,1022,truth_conditions,color,18,generic,10,gold spots,Disagree,blins
9,1024,truth_conditions,color,19,generic,10,copper stripes,Disagree,ackles
9,1001,truth_conditions,accidental,20,generic,30,wet fur,Disagree,dorbs
9,922,truth_conditions,accidental,21,generic,10,infected scales,Disagree,mooks
9,1192,truth_conditions,accidental,22,generic,70,itchy skin,Disagree,grinks
9,2609,truth_conditions,color,23,generic,50,yellow fur,Disagree,sapers
9,978,truth_conditions,color,24,generic,70,purple feathers,Disagree,taifels
9,989,truth_conditions,vague,25,generic,90,curly fur,Disagree,krivels
9,967,truth_conditions,color,26,generic,30,silver legs,Disagree,zorbs
9,1057,truth_conditions,accidental,27,generic,90,rotting shells,Disagree,kazzes
9,992,truth_conditions,vague,28,generic,70,soft scales,Disagree,javs
9,947,truth_conditions,accidental,29,generic,90,sore teeth,Disagree,frams
10,4897,truth_conditions,color,0,generic,90,orange ears,Agree,daiths
10,4523,truth_conditions,vague,1,generic,70,long teeth,Agree,zoovs
10,2792,truth_conditions,accidental,2,generic,70,sore teeth,Agree,lorches
10,2383,truth_conditions,accidental,3,generic,90,broken legs,Agree,mooks
10,2807,truth_conditions,accidental,4,generic,50,wet fur,Agree,grinks
10,2395,truth_conditions,accidental,5,generic,30,rotting shells,Disagree,plovs
10,2138,truth_conditions,vague,6,generic,30,small ears,Disagree,stups
10,2757,truth_conditions,vague,7,generic,70,light shells,Agree,ollers
10,3623,truth_conditions,color,8,generic,30,silver legs,Disagree,taifels
10,2912,truth_conditions,accidental,9,generic,30,fungus-covered claws,Disagree,dorbs
10,2943,truth_conditions,accidental,10,generic,50,swollen ears,Agree,trufts
10,1675,truth_conditions,vague,11,generic,90,thin stripes,Agree,glippets
10,1627,truth_conditions,accidental,12,generic,70,infected scales,Agree,morseths
10,2253,truth_conditions,vague,13,generic,30,smooth feathers,Disagree,cheebas
10,1440,truth_conditions,vague,14,generic,50,curly fur,Agree,kazzes
10,1808,truth_conditions,vague,15,generic,10,soft scales,Disagree,elleps
10,1407,truth_conditions,accidental,16,generic,90,itchy skin,Agree,kweps
10,1810,truth_conditions,color,17,generic,70,red scales,Agree,ackles
10,1443,truth_conditions,color,18,generic,50,yellow fur,Agree,reesles
10,1427,truth_conditions,color,19,generic,70,orange tails,Agree,krivels
10,2278,truth_conditions,color,20,generic,10,copper stripes,Disagree,wugs
10,1507,truth_conditions,color,21,generic,90,green shells,Agree,moxes
10,1775,truth_conditions,vague,22,generic,10,sensitive spots,Disagree,luzaks
10,1282,truth_conditions,accidental,23,generic,10,muddy feathers,Disagree,thups
10,2798,truth_conditions,vague,24,generic,90,long legs,Agree,sapers
10,1800,truth_conditions,vague,25,generic,50,long tails,Agree,zorbs
10,1777,truth_conditions,accidental,26,generic,10,cracked shells,Disagree,javs
10,2335,truth_conditions,color,27,generic,50,pink teeth,Agree,pangolins
10,2473,truth_conditions,color,28,generic,10,purple feathers,Disagree,frams
10,3580,truth_conditions,color,29,generic,30,gold spots,Disagree,blins
11,4450,implied_prevalence,vague,0,generic,NA,small ears,100,daiths
11,3226,implied_prevalence,vague,1,generic,NA,long tails,80,zoovs
11,2994,implied_prevalence,color,2,generic,NA,gold spots,40,morseths
11,3711,implied_prevalence,color,3,generic,NA,orange tails,100,zorbs
11,3030,implied_prevalence,accidental,4,generic,NA,sore teeth,15,sapers
11,3686,implied_prevalence,accidental,5,generic,NA,swollen ears,20,pangolins
11,2863,implied_prevalence,accidental,6,generic,NA,wet fur,10,mooks
11,2328,implied_prevalence,accidental,7,generic,NA,infected scales,5,ollers
11,3286,implied_prevalence,color,8,generic,NA,green shells,100,cheebas
11,2922,implied_prevalence,accidental,9,generic,NA,itchy skin,10,moxes
11,16989,implied_prevalence,vague,10,generic,NA,thin stripes,20,taifels
11,34047,implied_prevalence,color,11,generic,NA,pink teeth,100,trufts
11,2727,implied_prevalence,vague,12,generic,NA,light shells,15,lorches
11,3298,implied_prevalence,accidental,13,generic,NA,broken legs,5,luzaks
11,2777,implied_prevalence,color,14,generic,NA,copper stripes,22,kweps
11,3503,implied_prevalence,vague,15,generic,NA,smooth feathers,75,grinks
11,2825,implied_prevalence,vague,16,generic,NA,sensitive spots,45,blins
11,2703,implied_prevalence,accidental,17,generic,NA,muddy feathers,23,krivels
11,2462,implied_prevalence,color,18,generic,NA,red scales,100,frams
11,3528,implied_prevalence,color,19,generic,NA,yellow fur,47,reesles
11,3419,implied_prevalence,color,20,generic,NA,purple feathers,100,thups
11,4038,implied_prevalence,vague,21,generic,NA,soft scales,78,stups
11,3200,implied_prevalence,color,22,generic,NA,orange ears,73,glippets
11,3977,implied_prevalence,accidental,23,generic,NA,fungus-covered claws,2,elleps
11,2800,implied_prevalence,accidental,24,generic,NA,cracked shells,4,dorbs
11,3275,implied_prevalence,vague,25,generic,NA,long teeth,50,ackles
11,3540,implied_prevalence,color,26,generic,NA,silver legs,78,kazzes
11,2969,implied_prevalence,vague,27,generic,NA,long legs,100,plovs
11,3225,implied_prevalence,vague,28,generic,NA,curly fur,65,wugs
11,2485,implied_prevalence,accidental,29,generic,NA,rotting shells,22,javs
12,7803,truth_conditions,color,0,generic,90,green shells,Agree,morseths
12,4508,truth_conditions,accidental,1,generic,30,itchy skin,Disagree,frams
12,2996,truth_conditions,vague,2,generic,70,soft scales,Agree,taifels
12,5677,truth_conditions,vague,3,generic,90,thin stripes,Agree,zorbs
12,3996,truth_conditions,vague,4,generic,50,curly fur,Agree,reesles
12,3086,truth_conditions,accidental,5,generic,90,wet fur,Agree,cheebas
12,3709,truth_conditions,color,6,generic,90,copper stripes,Agree,zoovs
12,4068,truth_conditions,color,7,generic,10,red scales,Disagree,sapers
12,2206,truth_conditions,accidental,8,generic,70,muddy feathers,Agree,stups
12,2304,truth_conditions,color,9,generic,30,silver legs,Disagree,grinks
12,2709,truth_conditions,accidental,10,generic,90,swollen ears,Agree,daiths
12,2959,truth_conditions,color,11,generic,70,yellow fur,Agree,kazzes
12,3025,truth_conditions,vague,12,generic,90,small ears,Agree,javs
12,1565,truth_conditions,vague,13,generic,10,sensitive spots,Disagree,trufts
12,2166,truth_conditions,color,14,generic,30,gold spots,Disagree,dorbs
12,2135,truth_conditions,accidental,15,generic,10,broken legs,Disagree,thups
12,2172,truth_conditions,vague,16,generic,50,long teeth,Agree,blins
12,1295,truth_conditions,accidental,17,generic,50,rotting shells,Agree,plovs
12,1250,truth_conditions,color,18,generic,70,purple feathers,Agree,kweps
12,1652,truth_conditions,accidental,19,generic,10,cracked shells,Disagree,ackles
12,2029,truth_conditions,color,20,generic,50,orange ears,Agree,pangolins
12,2402,truth_conditions,vague,21,generic,10,long legs,Disagree,elleps
12,1470,truth_conditions,accidental,22,generic,50,infected scales,Agree,moxes
12,1372,truth_conditions,color,23,generic,10,orange tails,Disagree,glippets
12,1590,truth_conditions,vague,24,generic,30,long tails,Disagree,lorches
12,1261,truth_conditions,accidental,25,generic,30,sore teeth,Disagree,ollers
12,1315,truth_conditions,vague,26,generic,30,smooth feathers,Disagree,krivels
12,1216,truth_conditions,vague,27,generic,70,light shells,Agree,luzaks
12,1463,truth_conditions,color,28,generic,50,pink teeth,Agree,mooks
12,1318,truth_conditions,accidental,29,generic,70,fungus-covered claws,Agree,wugs
13,15206,truth_conditions,color,0,generic,70,silver legs,Disagree,morseths
13,6209,truth_conditions,vague,1,generic,50,long teeth,Agree,plovs
13,3470,truth_conditions,color,2,generic,30,pink teeth,Disagree,javs
13,3896,truth_conditions,color,3,generic,50,orange ears,Agree,glippets
13,2667,truth_conditions,vague,4,generic,30,smooth feathers,Disagree,kazzes
13,3965,truth_conditions,accidental,5,generic,90,cracked shells,Agree,kweps
13,4236,truth_conditions,accidental,6,generic,30,wet fur,Disagree,cheebas
13,2610,truth_conditions,accidental,7,generic,50,muddy feathers,Agree,pangolins
13,2585,truth_conditions,accidental,8,generic,10,fungus-covered claws,Disagree,wugs
13,2621,truth_conditions,accidental,9,generic,90,itchy skin,Agree,blins
13,2633,truth_conditions,accidental,10,generic,70,infected scales,Agree,ackles
13,2524,truth_conditions,color,11,generic,10,purple feathers,Disagree,zorbs
13,1927,truth_conditions,color,12,generic,50,orange tails,Agree,luzaks
13,4455,truth_conditions,accidental,13,generic,70,broken legs,Agree,dorbs
13,4310,truth_conditions,vague,14,generic,70,small ears,Agree,trufts
13,2887,truth_conditions,color,15,generic,30,copper stripes,Disagree,frams
13,2731,truth_conditions,accidental,16,generic,50,sore teeth,Agree,lorches
13,2088,truth_conditions,vague,17,generic,90,curly fur,Agree,sapers
13,4747,truth_conditions,vague,18,generic,50,soft scales,Agree,stups
13,2509,truth_conditions,color,19,generic,70,green shells,Agree,zoovs
13,2763,truth_conditions,color,20,generic,90,gold spots,Agree,elleps
13,4118,truth_conditions,accidental,21,generic,10,rotting shells,Disagree,grinks
13,3007,truth_conditions,vague,22,generic,10,long legs,Disagree,mooks
13,2572,truth_conditions,accidental,23,generic,30,swollen ears,Disagree,thups
13,2731,truth_conditions,color,24,generic,10,red scales,Disagree,moxes
13,2440,truth_conditions,vague,25,generic,30,long tails,Disagree,krivels
13,3033,truth_conditions,vague,26,generic,70,light shells,Agree,daiths
13,2537,truth_conditions,vague,27,generic,90,sensitive spots,Agree,reesles
13,2572,truth_conditions,color,28,generic,90,yellow fur,Agree,taifels
13,3872,truth_conditions,vague,29,generic,10,thin stripes,Disagree,ollers
14,11997,implied_prevalence,accidental,0,generic,NA,broken legs,90,stups
14,8017,implied_prevalence,color,1,generic,NA,pink teeth,95,grinks
14,6418,implied_prevalence,color,2,generic,NA,silver legs,99,kazzes
14,6018,implied_prevalence,accidental,3,generic,NA,muddy feathers,75,luzaks
14,4288,implied_prevalence,accidental,4,generic,NA,infected scales,50,sapers
14,4162,implied_prevalence,vague,5,generic,NA,smooth feathers,60,blins
14,10576,implied_prevalence,color,6,generic,NA,yellow fur,97,krivels
14,5516,implied_prevalence,vague,7,generic,NA,light shells,80,wugs
14,4831,implied_prevalence,accidental,8,generic,NA,rotting shells,60,elleps
14,3127,implied_prevalence,color,9,generic,NA,orange ears,99,dorbs
14,3526,implied_prevalence,vague,10,generic,NA,small ears,95,frams
14,5532,implied_prevalence,color,11,generic,NA,copper stripes,96,kweps
14,5514,implied_prevalence,vague,12,generic,NA,thin stripes,92,zorbs
14,7987,implied_prevalence,color,13,generic,NA,red scales,97,lorches
14,3422,implied_prevalence,accidental,14,generic,NA,cracked shells,70,mooks
14,5693,implied_prevalence,color,15,generic,NA,green shells,93,ackles
14,4931,implied_prevalence,vague,16,generic,NA,soft scales,94,zoovs
14,3221,implied_prevalence,accidental,17,generic,NA,sore teeth,55,morseths
14,3152,implied_prevalence,vague,18,generic,NA,sensitive spots,70,javs
14,4752,implied_prevalence,vague,19,generic,NA,long legs,92,cheebas
14,7579,implied_prevalence,color,20,generic,NA,orange tails,98,trufts
14,3184,implied_prevalence,color,21,generic,NA,purple feathers,99,pangolins
14,3616,implied_prevalence,accidental,22,generic,NA,wet fur,69,taifels
14,8794,implied_prevalence,vague,23,generic,NA,long tails,88,glippets
14,4458,implied_prevalence,color,24,generic,NA,gold spots,90,plovs
14,6506,implied_prevalence,accidental,25,generic,NA,fungus-covered claws,55,daiths
14,4200,implied_prevalence,accidental,26,generic,NA,swollen ears,70,reesles
14,3798,implied_prevalence,vague,27,generic,NA,curly fur,87,thups
14,4777,implied_prevalence,vague,28,generic,NA,long teeth,85,ollers
14,27258,implied_prevalence,accidental,29,generic,NA,itchy skin,55,moxes
15,10391,truth_conditions,accidental,0,generic,90,swollen ears,Agree,grinks
15,6119,truth_conditions,accidental,1,generic,30,fungus-covered claws,Disagree,cheebas
15,7191,truth_conditions,color,2,generic,90,green shells,Agree,daiths
15,4435,truth_conditions,vague,3,generic,50,soft scales,Disagree,glippets
15,5416,truth_conditions,color,4,generic,70,red scales,Agree,frams
15,3291,truth_conditions,vague,5,generic,30,light shells,Disagree,elleps
15,4460,truth_conditions,vague,6,generic,70,small ears,Agree,reesles
15,5407,truth_conditions,color,7,generic,10,pink teeth,Disagree,ackles
15,3906,truth_conditions,vague,8,generic,10,smooth feathers,Disagree,pangolins
15,3651,truth_conditions,color,9,generic,90,yellow fur,Agree,plovs
15,4216,truth_conditions,color,10,generic,30,orange ears,Disagree,taifels
15,4033,truth_conditions,accidental,11,generic,70,wet fur,Agree,zorbs
15,17696,truth_conditions,accidental,12,generic,10,broken legs,Disagree,zoovs
15,3554,truth_conditions,vague,13,generic,90,long tails,Agree,kweps
15,4941,truth_conditions,vague,14,generic,90,sensitive spots,Agree,stups
15,3567,truth_conditions,accidental,15,generic,50,cracked shells,Disagree,kazzes
15,3277,truth_conditions,color,16,generic,50,orange tails,Disagree,blins
15,3933,truth_conditions,color,17,generic,10,gold spots,Disagree,javs
15,6102,truth_conditions,vague,18,generic,10,long legs,Disagree,wugs
15,5006,truth_conditions,vague,19,generic,70,curly fur,Disagree,sapers
15,3900,truth_conditions,vague,20,generic,50,thin stripes,Disagree,luzaks
15,8908,truth_conditions,color,21,generic,70,copper stripes,Agree,dorbs
15,3256,truth_conditions,accidental,22,generic,30,itchy skin,Disagree,moxes
15,4944,truth_conditions,vague,23,generic,30,long teeth,Disagree,lorches
15,8384,truth_conditions,color,24,generic,30,purple feathers,Disagree,morseths
15,3672,truth_conditions,accidental,25,generic,70,rotting shells,Agree,thups
15,3166,truth_conditions,accidental,26,generic,10,sore teeth,Disagree,krivels
15,3557,truth_conditions,accidental,27,generic,90,muddy feathers,Agree,trufts
15,3693,truth_conditions,accidental,28,generic,50,infected scales,Disagree,ollers
15,3380,truth_conditions,color,29,generic,50,silver legs,Disagree,mooks
16,11854,implied_prevalence,accidental,0,generic,NA,swollen ears,95,luzaks
16,10095,implied_prevalence,accidental,1,generic,NA,wet fur,95,thups
16,8800,implied_prevalence,color,2,generic,NA,gold spots,95,plovs
16,3816,implied_prevalence,vague,3,generic,NA,sensitive spots,95,daiths
16,3887,implied_prevalence,vague,4,generic,NA,long tails,95,grinks
16,3425,implied_prevalence,color,5,generic,NA,red scales,95,zorbs
16,3576,implied_prevalence,color,6,generic,NA,green shells,95,moxes
16,5376,implied_prevalence,accidental,7,generic,NA,rotting shells,95,elleps
16,4119,implied_prevalence,vague,8,generic,NA,thin stripes,95,javs
16,4969,implied_prevalence,accidental,9,generic,NA,infected scales,95,frams
16,3072,implied_prevalence,vague,10,generic,NA,soft scales,95,cheebas
16,6831,implied_prevalence,accidental,11,generic,NA,fungus-covered claws,95,lorches
16,2608,implied_prevalence,color,12,generic,NA,orange ears,95,blins
16,3897,implied_prevalence,vague,13,generic,NA,small ears,95,trufts
16,3272,implied_prevalence,color,14,generic,NA,orange tails,95,morseths
16,4056,implied_prevalence,vague,15,generic,NA,curly fur,95,wugs
16,3599,implied_prevalence,accidental,16,generic,NA,broken legs,95,taifels
16,4055,implied_prevalence,vague,17,generic,NA,long legs,95,dorbs
16,4081,implied_prevalence,color,18,generic,NA,copper stripes,95,stups
16,2504,implied_prevalence,vague,19,generic,NA,light shells,95,zoovs
16,3815,implied_prevalence,accidental,20,generic,NA,itchy skin,95,sapers
16,4879,implied_prevalence,accidental,21,generic,NA,sore teeth,95,krivels
16,2296,implied_prevalence,accidental,22,generic,NA,muddy feathers,95,mooks
16,2969,implied_prevalence,color,23,generic,NA,pink teeth,95,kweps
16,2728,implied_prevalence,color,24,generic,NA,yellow fur,95,ackles
16,3088,implied_prevalence,vague,25,generic,NA,long teeth,95,glippets
16,1656,implied_prevalence,color,26,generic,NA,silver legs,95,reesles
16,2119,implied_prevalence,color,27,generic,NA,purple feathers,95,kazzes
16,2552,implied_prevalence,vague,28,generic,NA,smooth feathers,95,pangolins
16,2488,implied_prevalence,accidental,29,generic,NA,cracked shells,95,ollers
17,36380,truth_conditions,vague,0,generic,30,soft scales,Agree,dorbs
17,11571,truth_conditions,accidental,1,generic,50,fungus-covered claws,Agree,elleps
17,6545,truth_conditions,color,2,generic,90,orange tails,Agree,kazzes
17,6217,truth_conditions,accidental,3,generic,50,rotting shells,Agree,glippets
17,3816,truth_conditions,accidental,4,generic,10,swollen ears,Disagree,kweps
17,3855,truth_conditions,color,5,generic,10,silver legs,Disagree,luzaks
17,6951,truth_conditions,color,6,generic,30,green shells,Agree,trufts
17,16248,truth_conditions,vague,7,generic,70,curly fur,Agree,lorches
17,3777,truth_conditions,color,8,generic,70,purple feathers,Agree,reesles
17,3442,truth_conditions,accidental,9,generic,90,sore teeth,Agree,thups
17,6370,truth_conditions,vague,10,generic,30,thin stripes,Agree,krivels
17,3156,truth_conditions,accidental,11,generic,90,wet fur,Agree,moxes
17,3407,truth_conditions,vague,12,generic,50,small ears,Agree,javs
17,4071,truth_conditions,vague,13,generic,70,sensitive spots,Agree,zoovs
17,4179,truth_conditions,accidental,14,generic,70,cracked shells,Agree,plovs
17,3109,truth_conditions,vague,15,generic,90,light shells,Agree,stups
17,4191,truth_conditions,accidental,16,generic,10,broken legs,Disagree,frams
17,4969,truth_conditions,color,17,generic,50,copper stripes,Agree,pangolins
17,4469,truth_conditions,color,18,generic,70,red scales,Agree,cheebas
17,3734,truth_conditions,accidental,19,generic,70,muddy feathers,Agree,ackles
17,4083,truth_conditions,accidental,20,generic,30,itchy skin,Agree,daiths
17,3413,truth_conditions,accidental,21,generic,30,infected scales,Agree,zorbs
17,3229,truth_conditions,vague,22,generic,10,smooth feathers,Disagree,morseths
17,3356,truth_conditions,color,23,generic,10,gold spots,Disagree,mooks
17,4068,truth_conditions,vague,24,generic,10,long tails,Disagree,grinks
17,2682,truth_conditions,vague,25,generic,50,long legs,Agree,sapers
17,3758,truth_conditions,color,26,generic,90,pink teeth,Agree,blins
17,3401,truth_conditions,vague,27,generic,90,long teeth,Agree,wugs
17,3043,truth_conditions,color,28,generic,50,orange ears,Agree,taifels
17,3173,truth_conditions,color,29,generic,30,yellow fur,Agree,ollers
18,16192,truth_conditions,color,0,generic,90,green shells,Agree,reesles
18,5931,truth_conditions,color,1,generic,70,pink teeth,Agree,morseths
18,6419,truth_conditions,vague,2,generic,90,light shells,Agree,sapers
18,8681,truth_conditions,accidental,3,generic,50,broken legs,Agree,zoovs
18,6657,truth_conditions,color,4,generic,10,purple feathers,Agree,plovs
18,4966,truth_conditions,vague,5,generic,50,long legs,Agree,trufts
18,4118,truth_conditions,accidental,6,generic,70,wet fur,Agree,stups
18,5912,truth_conditions,color,7,generic,70,gold spots,Agree,lorches
18,5892,truth_conditions,accidental,8,generic,10,cracked shells,Agree,javs
18,3771,truth_conditions,accidental,9,generic,50,itchy skin,Agree,ollers
18,4961,truth_conditions,vague,10,generic,50,small ears,Agree,kweps
18,5477,truth_conditions,accidental,11,generic,90,sore teeth,Agree,daiths
18,4967,truth_conditions,accidental,12,generic,30,fungus-covered claws,Agree,zorbs
18,4671,truth_conditions,accidental,13,generic,10,swollen ears,Agree,elleps
18,6782,truth_conditions,vague,14,generic,90,smooth feathers,Agree,kazzes
18,4318,truth_conditions,accidental,15,generic,30,infected scales,Agree,frams
18,5889,truth_conditions,color,16,generic,10,orange ears,Agree,glippets
18,4226,truth_conditions,color,17,generic,50,copper stripes,Agree,pangolins
18,4640,truth_conditions,color,18,generic,30,red scales,Agree,grinks
18,8921,truth_conditions,accidental,19,generic,90,muddy feathers,Agree,krivels
18,5594,truth_conditions,color,20,generic,30,yellow fur,Agree,luzaks
18,4180,truth_conditions,vague,21,generic,30,thin stripes,Agree,dorbs
18,5732,truth_conditions,vague,22,generic,30,soft scales,Agree,blins
18,4180,truth_conditions,vague,23,generic,70,long teeth,Agree,mooks
18,4711,truth_conditions,color,24,generic,90,silver legs,Agree,ackles
18,4078,truth_conditions,vague,25,generic,70,sensitive spots,Agree,thups
18,5772,truth_conditions,color,26,generic,50,orange tails,Agree,taifels
18,5296,truth_conditions,vague,27,generic,10,curly fur,Agree,moxes
18,4860,truth_conditions,vague,28,generic,10,long tails,Agree,wugs
18,4335,truth_conditions,accidental,29,generic,70,rotting shells,Agree,cheebas
19,8717,implied_prevalence,vague,0,generic,NA,soft scales,100,morseths
19,7065,implied_prevalence,vague,1,generic,NA,small ears,100,javs
19,6036,implied_prevalence,color,2,generic,NA,orange ears,100,ackles
19,7719,implied_prevalence,accidental,3,generic,NA,fungus-covered claws,100,reesles
19,5236,implied_prevalence,vague,4,generic,NA,thin stripes,100,dorbs
19,5059,implied_prevalence,vague,5,generic,NA,light shells,100,sapers
19,5896,implied_prevalence,vague,6,generic,NA,curly fur,100,glippets
19,5583,implied_prevalence,color,7,generic,NA,silver legs,100,luzaks
19,7487,implied_prevalence,accidental,8,generic,NA,rotting shells,100,blins
19,4929,implied_prevalence,color,9,generic,NA,green shells,100,cheebas
19,4622,implied_prevalence,color,10,generic,NA,yellow fur,100,kazzes
19,4715,implied_prevalence,accidental,11,generic,NA,broken legs,100,trufts
19,6579,implied_prevalence,vague,12,generic,NA,long tails,100,pangolins
19,5903,implied_prevalence,color,13,generic,NA,purple feathers,100,moxes
19,4067,implied_prevalence,color,14,generic,NA,orange tails,100,zorbs
19,4452,implied_prevalence,vague,15,generic,NA,sensitive spots,100,ollers
19,4069,implied_prevalence,vague,16,generic,NA,smooth feathers,100,grinks
19,3241,implied_prevalence,accidental,17,generic,NA,cracked shells,100,zoovs
19,4093,implied_prevalence,accidental,18,generic,NA,itchy skin,100,lorches
19,5566,implied_prevalence,color,19,generic,NA,copper stripes,100,wugs
19,4280,implied_prevalence,color,20,generic,NA,red scales,100,plovs
19,4098,implied_prevalence,vague,21,generic,NA,long legs,100,mooks
19,4084,implied_prevalence,accidental,22,generic,NA,wet fur,100,taifels
19,4215,implied_prevalence,accidental,23,generic,NA,muddy feathers,100,elleps
19,3609,implied_prevalence,accidental,24,generic,NA,sore teeth,100,stups
19,3647,implied_prevalence,color,25,generic,NA,pink teeth,100,daiths
19,3418,implied_prevalence,accidental,26,generic,NA,infected scales,100,krivels
19,3592,implied_prevalence,accidental,27,generic,NA,swollen ears,100,thups
19,4436,implied_prevalence,color,28,generic,NA,gold spots,100,frams
19,4751,implied_prevalence,vague,29,generic,NA,long teeth,100,kweps
20,14685,truth_conditions,vague,0,generic,10,soft scales,Disagree,lorches
20,9851,truth_conditions,vague,1,generic,10,smooth feathers,Disagree,thups
20,8528,truth_conditions,accidental,2,generic,70,rotting shells,Agree,sapers
20,7336,truth_conditions,accidental,3,generic,50,cracked shells,Agree,krivels
20,6379,truth_conditions,accidental,4,generic,70,broken legs,Agree,morseths
20,5203,truth_conditions,color,5,generic,90,yellow fur,Agree,javs
20,5345,truth_conditions,accidental,6,generic,90,itchy skin,Agree,mooks
20,5836,truth_conditions,accidental,7,generic,30,infected scales,Disagree,cheebas
20,4388,truth_conditions,accidental,8,generic,10,fungus-covered claws,Disagree,zorbs
20,6914,truth_conditions,color,9,generic,50,purple feathers,Agree,frams
20,3969,truth_conditions,color,10,generic,70,pink teeth,Agree,kweps
20,3581,truth_conditions,color,11,generic,30,orange tails,Disagree,dorbs
20,2877,truth_conditions,color,12,generic,90,red scales,Agree,daiths
20,11104,truth_conditions,color,13,generic,50,orange ears,Agree,stups
20,19970,truth_conditions,vague,14,generic,90,small ears,Agree,blins
20,2195,truth_conditions,vague,15,generic,50,light shells,Agree,reesles
20,7872,truth_conditions,vague,16,generic,90,long teeth,Agree,elleps
20,36934,truth_conditions,vague,17,generic,50,curly fur,Agree,glippets
20,24514,truth_conditions,color,18,generic,70,green shells,Agree,plovs
20,5267,truth_conditions,vague,19,generic,30,thin stripes,Disagree,taifels
20,3702,truth_conditions,accidental,20,generic,90,muddy feathers,Agree,zoovs
20,4696,truth_conditions,vague,21,generic,70,sensitive spots,Agree,moxes
20,2769,truth_conditions,color,22,generic,30,copper stripes,Disagree,trufts
20,3799,truth_conditions,vague,23,generic,70,long tails,Agree,pangolins
20,4682,truth_conditions,accidental,24,generic,10,swollen ears,Disagree,kazzes
20,15116,truth_conditions,accidental,25,generic,30,sore teeth,Disagree,ollers
20,4196,truth_conditions,color,26,generic,10,silver legs,Disagree,ackles
20,5087,truth_conditions,vague,27,generic,30,long legs,Disagree,grinks
20,2852,truth_conditions,accidental,28,generic,50,wet fur,Agree,luzaks
20,2214,truth_conditions,color,29,generic,10,gold spots,Disagree,wugs
21,20993,implied_prevalence,accidental,0,generic,NA,broken legs,50,thups
21,8283,implied_prevalence,accidental,1,generic,NA,infected scales,50,wugs
21,4764,implied_prevalence,accidental,2,generic,NA,sore teeth,50,krivels
21,7266,implied_prevalence,accidental,3,generic,NA,muddy feathers,100,moxes
21,7217,implied_prevalence,color,4,generic,NA,silver legs,100,stups
21,4239,implied_prevalence,vague,5,generic,NA,smooth feathers,100,mooks
21,6720,implied_prevalence,vague,6,generic,NA,long teeth,100,sapers
21,5289,implied_prevalence,color,7,generic,NA,copper stripes,100,ollers
21,5019,implied_prevalence,vague,8,generic,NA,curly fur,100,kweps
21,3473,implied_prevalence,vague,9,generic,NA,long tails,100,ackles
21,5310,implied_prevalence,accidental,10,generic,NA,cracked shells,100,pangolins
21,6283,implied_prevalence,color,11,generic,NA,green shells,100,javs
21,6896,implied_prevalence,color,12,generic,NA,orange tails,50,grinks
21,5246,implied_prevalence,vague,13,generic,NA,small ears,100,blins
21,4533,implied_prevalence,vague,14,generic,NA,sensitive spots,100,frams
21,3893,implied_prevalence,color,15,generic,NA,yellow fur,50,glippets
21,5212,implied_prevalence,color,16,generic,NA,purple feathers,50,reesles
21,4858,implied_prevalence,accidental,17,generic,NA,swollen ears,100,morseths
21,4009,implied_prevalence,color,18,generic,NA,pink teeth,100,daiths
21,5543,implied_prevalence,vague,19,generic,NA,light shells,100,lorches
21,51216,implied_prevalence,accidental,20,generic,NA,wet fur,100,dorbs
21,4085,implied_prevalence,vague,21,generic,NA,long legs,100,plovs
21,3284,implied_prevalence,vague,22,generic,NA,thin stripes,100,luzaks
21,6883,implied_prevalence,color,23,generic,NA,red scales,100,elleps
21,5943,implied_prevalence,accidental,24,generic,NA,rotting shells,100,kazzes
21,6005,implied_prevalence,color,25,generic,NA,orange ears,100,trufts
21,5697,implied_prevalence,accidental,26,generic,NA,itchy skin,100,zorbs
21,4986,implied_prevalence,accidental,27,generic,NA,fungus-covered claws,100,taifels
21,3684,implied_prevalence,color,28,generic,NA,gold spots,100,cheebas
21,3470,implied_prevalence,vague,29,generic,NA,soft scales,100,zoovs
22,12207,implied_prevalence,accidental,0,generic,NA,itchy skin,100,ollers
22,9105,implied_prevalence,color,1,generic,NA,red scales,100,zorbs
22,11358,implied_prevalence,vague,2,generic,NA,curly fur,100,moxes
22,10368,implied_prevalence,accidental,3,generic,NA,swollen ears,100,kazzes
22,8679,implied_prevalence,accidental,4,generic,NA,muddy feathers,100,frams
22,7536,implied_prevalence,vague,5,generic,NA,long teeth,100,javs
22,6412,implied_prevalence,color,6,generic,NA,yellow fur,100,luzaks
22,12318,implied_prevalence,accidental,7,generic,NA,infected scales,100,grinks
22,8381,implied_prevalence,accidental,8,generic,NA,wet fur,100,pangolins
22,7213,implied_prevalence,color,9,generic,NA,pink teeth,100,sapers
22,7321,implied_prevalence,color,10,generic,NA,copper stripes,100,elleps
22,6620,implied_prevalence,accidental,11,generic,NA,fungus-covered claws,100,reesles
22,6190,implied_prevalence,vague,12,generic,NA,small ears,100,dorbs
22,6571,implied_prevalence,color,13,generic,NA,silver legs,100,mooks
22,9897,implied_prevalence,accidental,14,generic,NA,sore teeth,100,krivels
22,7085,implied_prevalence,vague,15,generic,NA,thin stripes,100,kweps
22,10020,implied_prevalence,color,16,generic,NA,orange tails,100,trufts
22,6362,implied_prevalence,vague,17,generic,NA,long legs,100,taifels
22,6158,implied_prevalence,color,18,generic,NA,gold spots,100,stups
22,6789,implied_prevalence,accidental,19,generic,NA,cracked shells,100,thups
22,7976,implied_prevalence,vague,20,generic,NA,long tails,100,cheebas
22,7356,implied_prevalence,color,21,generic,NA,orange ears,100,zoovs
22,6504,implied_prevalence,color,22,generic,NA,purple feathers,100,wugs
22,18540,implied_prevalence,color,23,generic,NA,green shells,100,daiths
22,8256,implied_prevalence,vague,24,generic,NA,light shells,100,lorches
22,10695,implied_prevalence,accidental,25,generic,NA,broken legs,50,morseths
22,5416,implied_prevalence,vague,26,generic,NA,smooth feathers,100,glippets
22,6491,implied_prevalence,accidental,27,generic,NA,rotting shells,50,blins
22,7858,implied_prevalence,vague,28,generic,NA,soft scales,75,ackles
22,8144,implied_prevalence,vague,29,generic,NA,sensitive spots,100,plovs
23,5027,implied_prevalence,vague,0,generic,NA,soft scales,20,lorches
23,7052,implied_prevalence,vague,1,generic,NA,curly fur,30,cheebas
23,3037,implied_prevalence,vague,2,generic,NA,long legs,50,trufts
23,6645,implied_prevalence,accidental,3,generic,NA,rotting shells,20,mooks
23,7432,implied_prevalence,accidental,4,generic,NA,infected scales,10,ackles
23,2709,implied_prevalence,accidental,5,generic,NA,fungus-covered claws,5,luzaks
23,2131,implied_prevalence,accidental,6,generic,NA,broken legs,2,stups
23,2852,implied_prevalence,color,7,generic,NA,purple feathers,60,taifels
23,2330,implied_prevalence,vague,8,generic,NA,smooth feathers,90,kazzes
23,2112,implied_prevalence,vague,9,generic,NA,long teeth,40,morseths
23,1925,implied_prevalence,accidental,10,generic,NA,cracked shells,1,zorbs
23,2433,implied_prevalence,vague,11,generic,NA,thin stripes,50,elleps
23,2158,implied_prevalence,color,12,generic,NA,orange ears,33,javs
23,1889,implied_prevalence,color,13,generic,NA,pink teeth,66,moxes
23,2345,implied_prevalence,color,14,generic,NA,gold spots,99,dorbs
23,2864,implied_prevalence,color,15,generic,NA,orange tails,45,thups
23,3285,implied_prevalence,vague,16,generic,NA,small ears,15,wugs
23,1931,implied_prevalence,accidental,17,generic,NA,swollen ears,10,sapers
23,1792,implied_prevalence,color,18,generic,NA,copper stripes,11,frams
23,2503,implied_prevalence,accidental,19,generic,NA,sore teeth,5,reesles
23,2154,implied_prevalence,accidental,20,generic,NA,muddy feathers,2,glippets
23,2576,implied_prevalence,vague,21,generic,NA,long tails,99,pangolins
23,1971,implied_prevalence,color,22,generic,NA,silver legs,85,plovs
23,2641,implied_prevalence,color,23,generic,NA,green shells,75,zoovs
23,1944,implied_prevalence,color,24,generic,NA,yellow fur,63,grinks
23,2428,implied_prevalence,color,25,generic,NA,red scales,52,daiths
23,1884,implied_prevalence,vague,26,generic,NA,light shells,42,krivels
23,2234,implied_prevalence,accidental,27,generic,NA,itchy skin,10,kweps
23,1856,implied_prevalence,accidental,28,generic,NA,wet fur,5,ollers
23,1996,implied_prevalence,vague,29,generic,NA,sensitive spots,1,blins
24,8438,implied_prevalence,color,0,generic,NA,pink teeth,10,ackles
24,5207,implied_prevalence,color,1,generic,NA,orange tails,40,sapers
24,6988,implied_prevalence,vague,2,generic,NA,long legs,55,dorbs
24,6354,implied_prevalence,accidental,3,generic,NA,muddy feathers,3,mooks
24,12257,implied_prevalence,color,4,generic,NA,copper stripes,23,stups
24,10546,implied_prevalence,vague,5,generic,NA,long tails,51,luzaks
24,6803,implied_prevalence,accidental,6,generic,NA,cracked shells,2,plovs
24,4025,implied_prevalence,color,7,generic,NA,orange ears,5,pangolins
24,6431,implied_prevalence,vague,8,generic,NA,sensitive spots,14,daiths
24,5765,implied_prevalence,vague,9,generic,NA,curly fur,12,krivels
24,4428,implied_prevalence,color,10,generic,NA,red scales,7,lorches
24,6141,implied_prevalence,vague,11,generic,NA,light shells,27,wugs
24,5325,implied_prevalence,color,12,generic,NA,yellow fur,25,kazzes
24,4659,implied_prevalence,color,13,generic,NA,green shells,5,blins
24,5666,implied_prevalence,accidental,14,generic,NA,sore teeth,1,zoovs
24,6178,implied_prevalence,color,15,generic,NA,gold spots,30,kweps
24,4027,implied_prevalence,accidental,16,generic,NA,rotting shells,1,taifels
24,7234,implied_prevalence,color,17,generic,NA,silver legs,8,elleps
24,6324,implied_prevalence,accidental,18,generic,NA,fungus-covered claws,2,zorbs
24,8460,implied_prevalence,accidental,19,generic,NA,itchy skin,4,thups
24,6597,implied_prevalence,vague,20,generic,NA,thin stripes,45,grinks
24,4179,implied_prevalence,accidental,21,generic,NA,infected scales,1,javs
24,3618,implied_prevalence,accidental,22,generic,NA,swollen ears,3,cheebas
24,5502,implied_prevalence,vague,23,generic,NA,small ears,34,morseths
24,3843,implied_prevalence,color,24,generic,NA,purple feathers,12,ollers
24,4504,implied_prevalence,accidental,25,generic,NA,broken legs,1,moxes
24,6901,implied_prevalence,vague,26,generic,NA,smooth feathers,41,reesles
24,4838,implied_prevalence,vague,27,generic,NA,long teeth,45,frams
24,4565,implied_prevalence,vague,28,generic,NA,soft scales,21,glippets
24,5597,implied_prevalence,accidental,29,generic,NA,wet fur,11,trufts
25,8791,truth_conditions,vague,0,generic,90,long tails,Agree,dorbs
25,25595,truth_conditions,color,1,generic,50,orange tails,Agree,kazzes
25,10806,truth_conditions,accidental,2,generic,30,fungus-covered claws,Agree,zorbs
25,13460,truth_conditions,accidental,3,generic,50,infected scales,Agree,daiths
25,21485,truth_conditions,vague,4,generic,50,curly fur,Agree,glippets
25,10078,truth_conditions,vague,5,generic,50,long teeth,Agree,lorches
25,3951,truth_conditions,color,6,generic,30,gold spots,Disagree,moxes
25,6847,truth_conditions,vague,7,generic,10,soft scales,Disagree,plovs
25,5607,truth_conditions,accidental,8,generic,50,broken legs,Agree,morseths
25,13775,truth_conditions,vague,9,generic,70,thin stripes,Agree,krivels
25,8376,truth_conditions,vague,10,generic,10,sensitive spots,Disagree,kweps
25,5335,truth_conditions,accidental,11,generic,70,swollen ears,Agree,elleps
25,4808,truth_conditions,accidental,12,generic,90,rotting shells,Agree,ackles
25,6744,truth_conditions,vague,13,generic,30,long legs,Disagree,frams
25,9197,truth_conditions,vague,14,generic,70,smooth feathers,Agree,taifels
25,6056,truth_conditions,color,15,generic,70,purple feathers,Agree,mooks
25,30332,truth_conditions,accidental,16,generic,10,cracked shells,Disagree,blins
25,3903,truth_conditions,color,17,generic,90,orange ears,Agree,sapers
25,2263,truth_conditions,vague,18,generic,30,small ears,Disagree,ollers
25,2118,truth_conditions,vague,19,generic,90,light shells,Agree,grinks
25,1463,truth_conditions,accidental,20,generic,10,wet fur,Disagree,trufts
25,1287,truth_conditions,color,21,generic,90,silver legs,Agree,javs
25,2079,truth_conditions,color,22,generic,70,pink teeth,Agree,reesles
25,1449,truth_conditions,color,23,generic,10,red scales,Disagree,cheebas
25,1615,truth_conditions,color,24,generic,50,yellow fur,Agree,wugs
25,2225,truth_conditions,accidental,25,generic,30,sore teeth,Disagree,pangolins
25,5413,truth_conditions,color,26,generic,30,green shells,Disagree,stups
25,4207,truth_conditions,color,27,generic,10,copper stripes,Disagree,zoovs
25,4640,truth_conditions,accidental,28,generic,90,muddy feathers,Agree,luzaks
25,2793,truth_conditions,accidental,29,generic,70,itchy skin,Agree,thups
26,6711,implied_prevalence,color,0,generic,NA,gold spots,56,blins
26,1799,implied_prevalence,vague,1,generic,NA,sensitive spots,35,mooks
26,1335,implied_prevalence,vague,2,generic,NA,soft scales,67,luzaks
26,1207,implied_prevalence,accidental,3,generic,NA,itchy skin,45,elleps
26,1432,implied_prevalence,color,4,generic,NA,silver legs,67,javs
26,1608,implied_prevalence,vague,5,generic,NA,small ears,34,pangolins
26,2056,implied_prevalence,accidental,6,generic,NA,sore teeth,67,daiths
26,1776,implied_prevalence,vague,7,generic,NA,long tails,45,frams
26,1376,implied_prevalence,accidental,8,generic,NA,broken legs,34,thups
26,1104,implied_prevalence,vague,9,generic,NA,curly fur,56,moxes
26,1376,implied_prevalence,accidental,10,generic,NA,cracked shells,45,kweps
26,2015,implied_prevalence,accidental,11,generic,NA,muddy feathers,45,trufts
26,1424,implied_prevalence,accidental,12,generic,NA,infected scales,67,sapers
26,1111,implied_prevalence,vague,13,generic,NA,smooth feathers,45,plovs
26,1376,implied_prevalence,color,14,generic,NA,orange ears,34,kazzes
26,1280,implied_prevalence,vague,15,generic,NA,long legs,56,lorches
26,2376,implied_prevalence,color,16,generic,NA,copper stripes,56,reesles
26,1663,implied_prevalence,color,17,generic,NA,red scales,34,dorbs
26,1410,implied_prevalence,color,18,generic,NA,yellow fur,67,grinks
26,1182,implied_prevalence,color,19,generic,NA,green shells,45,zorbs
26,1599,implied_prevalence,accidental,20,generic,NA,rotting shells,67,krivels
26,1663,implied_prevalence,accidental,21,generic,NA,swollen ears,45,taifels
26,1384,implied_prevalence,accidental,22,generic,NA,wet fur,34,morseths
26,2352,implied_prevalence,color,23,generic,NA,orange tails,23,cheebas
26,2071,implied_prevalence,color,24,generic,NA,pink teeth,78,zoovs
26,1376,implied_prevalence,vague,25,generic,NA,thin stripes,45,ollers
26,1711,implied_prevalence,vague,26,generic,NA,light shells,67,stups
26,1232,implied_prevalence,color,27,generic,NA,purple feathers,45,wugs
26,1360,implied_prevalence,accidental,28,generic,NA,fungus-covered claws,45,glippets
26,1471,implied_prevalence,vague,29,generic,NA,long teeth,65,ackles
27,9444,truth_conditions,vague,0,generic,90,long teeth,Agree,zorbs
27,10615,truth_conditions,vague,1,generic,50,light shells,Disagree,zoovs
27,6532,truth_conditions,vague,2,generic,30,smooth feathers,Disagree,lorches
27,6011,truth_conditions,color,3,generic,90,orange tails,Agree,thups
27,15540,truth_conditions,color,4,generic,10,purple feathers,Disagree,luzaks
27,3672,truth_conditions,color,5,generic,90,green shells,Agree,taifels
27,3968,truth_conditions,vague,6,generic,10,long legs,Disagree,glippets
27,5516,truth_conditions,vague,7,generic,90,sensitive spots,Agree,reesles
27,12464,truth_conditions,accidental,8,generic,30,fungus-covered claws,Disagree,ollers
27,4113,truth_conditions,accidental,9,generic,90,sore teeth,Agree,kazzes
27,2810,truth_conditions,accidental,10,generic,70,wet fur,Agree,morseths
27,4017,truth_conditions,color,11,generic,10,pink teeth,Disagree,elleps
27,3892,truth_conditions,color,12,generic,50,copper stripes,Disagree,blins
27,3328,truth_conditions,accidental,13,generic,90,broken legs,Agree,kweps
27,4024,truth_conditions,color,14,generic,30,orange ears,Disagree,sapers
27,2438,truth_conditions,vague,15,generic,30,long tails,Disagree,mooks
27,2860,truth_conditions,vague,16,generic,70,thin stripes,Agree,frams
27,3390,truth_conditions,accidental,17,generic,70,itchy skin,Agree,dorbs
27,4120,truth_conditions,vague,18,generic,70,small ears,Agree,grinks
27,15275,truth_conditions,accidental,19,generic,50,cracked shells,Disagree,cheebas
27,3360,truth_conditions,color,20,generic,70,gold spots,Agree,trufts
27,2946,truth_conditions,vague,21,generic,50,curly fur,Disagree,wugs
27,2706,truth_conditions,accidental,22,generic,50,muddy feathers,Disagree,ackles
27,2406,truth_conditions,accidental,23,generic,10,infected scales,Disagree,plovs
27,2518,truth_conditions,accidental,24,generic,30,rotting shells,Disagree,stups
27,3526,truth_conditions,accidental,25,generic,10,swollen ears,Disagree,moxes
27,2476,truth_conditions,color,26,generic,50,red scales,Disagree,javs
27,2187,truth_conditions,vague,27,generic,10,soft scales,Disagree,pangolins
27,7165,truth_conditions,color,28,generic,30,silver legs,Disagree,daiths
27,3358,truth_conditions,color,29,generic,70,yellow fur,Agree,krivels
28,9014,implied_prevalence,vague,0,generic,NA,long teeth,95,pangolins
28,8289,implied_prevalence,color,1,generic,NA,red scales,94,glippets
28,4992,implied_prevalence,color,2,generic,NA,copper stripes,96,ollers
28,5151,implied_prevalence,vague,3,generic,NA,sensitive spots,75,mooks
28,5849,implied_prevalence,accidental,4,generic,NA,itchy skin,98,javs
28,6655,implied_prevalence,color,5,generic,NA,yellow fur,95,thups
28,14528,implied_prevalence,accidental,6,generic,NA,rotting shells,98,morseths
28,4631,implied_prevalence,vague,7,generic,NA,thin stripes,94,krivels
28,2831,implied_prevalence,accidental,8,generic,NA,sore teeth,98,frams
28,4344,implied_prevalence,color,9,generic,NA,silver legs,91,zoovs
28,5159,implied_prevalence,accidental,10,generic,NA,cracked shells,80,elleps
28,4615,implied_prevalence,vague,11,generic,NA,curly fur,87,moxes
28,2856,implied_prevalence,vague,12,generic,NA,long tails,86,kazzes
28,4985,implied_prevalence,accidental,13,generic,NA,infected scales,75,kweps
28,4671,implied_prevalence,accidental,14,generic,NA,fungus-covered claws,91,stups
28,7105,implied_prevalence,vague,15,generic,NA,small ears,93,dorbs
28,3167,implied_prevalence,vague,16,generic,NA,light shells,94,plovs
28,3800,implied_prevalence,color,17,generic,NA,pink teeth,89,blins
28,3672,implied_prevalence,color,18,generic,NA,orange ears,94,reesles
28,2872,implied_prevalence,color,19,generic,NA,gold spots,96,sapers
28,3096,implied_prevalence,color,20,generic,NA,purple feathers,92,taifels
28,3391,implied_prevalence,accidental,21,generic,NA,broken legs,60,cheebas
28,20752,implied_prevalence,vague,22,generic,NA,smooth feathers,87,daiths
28,3799,implied_prevalence,color,23,generic,NA,green shells,91,ackles
28,3735,implied_prevalence,vague,24,generic,NA,soft scales,93,wugs
28,2856,implied_prevalence,accidental,25,generic,NA,muddy feathers,80,zorbs
28,3737,implied_prevalence,accidental,26,generic,NA,swollen ears,90,grinks
28,3742,implied_prevalence,color,27,generic,NA,orange tails,95,luzaks
28,3136,implied_prevalence,accidental,28,generic,NA,wet fur,65,trufts
28,3599,implied_prevalence,vague,29,generic,NA,long legs,79,lorches
29,6442,implied_prevalence,color,0,generic,NA,green shells,100,glippets
29,5377,implied_prevalence,color,1,generic,NA,silver legs,100,ollers
29,4730,implied_prevalence,vague,2,generic,NA,thin stripes,100,elleps
29,4100,implied_prevalence,vague,3,generic,NA,smooth feathers,100,cheebas
29,4251,implied_prevalence,vague,4,generic,NA,long tails,100,daiths
29,4726,implied_prevalence,accidental,5,generic,NA,wet fur,100,grinks
29,6895,implied_prevalence,vague,6,generic,NA,soft scales,100,frams
29,7526,implied_prevalence,accidental,7,generic,NA,sore teeth,100,dorbs
29,5001,implied_prevalence,vague,8,generic,NA,long legs,100,kweps
29,4471,implied_prevalence,accidental,9,generic,NA,fungus-covered claws,100,kazzes
29,3731,implied_prevalence,color,10,generic,NA,yellow fur,100,blins
29,4482,implied_prevalence,color,11,generic,NA,orange tails,100,krivels
29,3465,implied_prevalence,vague,12,generic,NA,sensitive spots,100,mooks
29,4949,implied_prevalence,accidental,13,generic,NA,rotting shells,100,zorbs
29,3538,implied_prevalence,color,14,generic,NA,copper stripes,100,wugs
29,4331,implied_prevalence,vague,15,generic,NA,long teeth,100,pangolins
29,3598,implied_prevalence,accidental,16,generic,NA,muddy feathers,100,ackles
29,3635,implied_prevalence,accidental,17,generic,NA,infected scales,100,lorches
29,4550,implied_prevalence,color,18,generic,NA,gold spots,100,taifels
29,5321,implied_prevalence,vague,19,generic,NA,curly fur,100,zoovs
29,3362,implied_prevalence,accidental,20,generic,NA,itchy skin,100,trufts
29,3382,implied_prevalence,accidental,21,generic,NA,swollen ears,100,sapers
29,3348,implied_prevalence,color,22,generic,NA,purple feathers,100,luzaks
29,3805,implied_prevalence,color,23,generic,NA,orange ears,100,javs
29,3196,implied_prevalence,color,24,generic,NA,red scales,100,reesles
29,3846,implied_prevalence,vague,25,generic,NA,light shells,100,plovs
29,3359,implied_prevalence,color,26,generic,NA,pink teeth,100,moxes
29,3280,implied_prevalence,accidental,27,generic,NA,broken legs,100,morseths
29,4399,implied_prevalence,vague,28,generic,NA,small ears,100,stups
29,3436,implied_prevalence,accidental,29,generic,NA,cracked shells,100,thups
30,13249,implied_prevalence,vague,0,generic,NA,long tails,50,dorbs
30,10118,implied_prevalence,accidental,1,generic,NA,infected scales,30,reesles
30,12697,implied_prevalence,color,2,generic,NA,orange tails,60,sapers
30,9905,implied_prevalence,color,3,generic,NA,green shells,56,kweps
30,8008,implied_prevalence,accidental,4,generic,NA,wet fur,30,moxes
30,6776,implied_prevalence,vague,5,generic,NA,smooth feathers,20,grinks
30,7702,implied_prevalence,color,6,generic,NA,purple feathers,20,trufts
30,7098,implied_prevalence,vague,7,generic,NA,curly fur,50,kazzes
30,6506,implied_prevalence,vague,8,generic,NA,sensitive spots,36,mooks
30,11536,implied_prevalence,accidental,9,generic,NA,rotting shells,56,stups
30,8898,implied_prevalence,accidental,10,generic,NA,broken legs,45,plovs
30,4586,implied_prevalence,color,11,generic,NA,gold spots,75,morseths
30,3958,implied_prevalence,accidental,12,generic,NA,cracked shells,56,lorches
30,5672,implied_prevalence,color,13,generic,NA,yellow fur,23,thups
30,3800,implied_prevalence,vague,14,generic,NA,thin stripes,42,pangolins
30,3516,implied_prevalence,color,15,generic,NA,orange ears,53,zoovs
30,3974,implied_prevalence,color,16,generic,NA,copper stripes,45,ollers
30,4546,implied_prevalence,vague,17,generic,NA,long legs,25,taifels
30,4438,implied_prevalence,vague,18,generic,NA,small ears,41,frams
30,5844,implied_prevalence,accidental,19,generic,NA,swollen ears,52,javs
30,3534,implied_prevalence,accidental,20,generic,NA,itchy skin,53,zorbs
30,5114,implied_prevalence,color,21,generic,NA,pink teeth,40,glippets
30,4272,implied_prevalence,vague,22,generic,NA,light shells,20,wugs
30,5104,implied_prevalence,accidental,23,generic,NA,muddy feathers,20,krivels
30,4194,implied_prevalence,accidental,24,generic,NA,fungus-covered claws,42,cheebas
30,4076,implied_prevalence,color,25,generic,NA,red scales,23,blins
30,4420,implied_prevalence,vague,26,generic,NA,long teeth,12,elleps
30,4500,implied_prevalence,vague,27,generic,NA,soft scales,13,daiths
30,5500,implied_prevalence,accidental,28,generic,NA,sore teeth,23,luzaks
30,6584,implied_prevalence,color,29,generic,NA,silver legs,25,ackles
31,10735,implied_prevalence,color,0,generic,NA,yellow fur,100,wugs
31,9643,implied_prevalence,accidental,1,generic,NA,infected scales,50,grinks
31,5096,implied_prevalence,vague,2,generic,NA,smooth feathers,100,moxes
31,9265,implied_prevalence,color,3,generic,NA,red scales,100,mooks
31,6622,implied_prevalence,vague,4,generic,NA,long legs,80,frams
31,5475,implied_prevalence,color,5,generic,NA,silver legs,100,zoovs
31,7041,implied_prevalence,color,6,generic,NA,pink teeth,90,cheebas
31,4677,implied_prevalence,accidental,7,generic,NA,fungus-covered claws,40,ollers
31,9140,implied_prevalence,accidental,8,generic,NA,broken legs,10,morseths
31,5289,implied_prevalence,vague,9,generic,NA,thin stripes,80,luzaks
31,6598,implied_prevalence,color,10,generic,NA,gold spots,100,blins
31,6819,implied_prevalence,accidental,11,generic,NA,muddy feathers,20,kweps
31,3505,implied_prevalence,color,12,generic,NA,orange ears,100,krivels
31,3281,implied_prevalence,vague,13,generic,NA,long tails,80,stups
31,5648,implied_prevalence,vague,14,generic,NA,long teeth,90,glippets
31,6223,implied_prevalence,accidental,15,generic,NA,swollen ears,10,plovs
31,3149,implied_prevalence,color,16,generic,NA,purple feathers,100,taifels
31,4520,implied_prevalence,vague,17,generic,NA,soft scales,100,elleps
31,5241,implied_prevalence,accidental,18,generic,NA,rotting shells,10,thups
31,8003,implied_prevalence,color,19,generic,NA,copper stripes,100,ackles
31,5226,implied_prevalence,accidental,20,generic,NA,cracked shells,30,lorches
31,4335,implied_prevalence,color,21,generic,NA,green shells,100,dorbs
31,7414,implied_prevalence,accidental,22,generic,NA,wet fur,30,daiths
31,3345,implied_prevalence,vague,23,generic,NA,curly fur,90,reesles
31,3482,implied_prevalence,accidental,24,generic,NA,itchy skin,20,kazzes
31,3194,implied_prevalence,vague,25,generic,NA,light shells,100,trufts
31,2937,implied_prevalence,vague,26,generic,NA,small ears,90,zorbs
31,6145,implied_prevalence,accidental,27,generic,NA,sore teeth,25,javs
31,3517,implied_prevalence,color,28,generic,NA,orange tails,100,sapers
31,7412,implied_prevalence,vague,29,generic,NA,sensitive spots,40,pangolins
32,8983,implied_prevalence,color,0,generic,NA,orange tails,100,trufts
32,5973,implied_prevalence,vague,1,generic,NA,smooth feathers,100,dorbs
32,4992,implied_prevalence,vague,2,generic,NA,sensitive spots,80,zorbs
32,7865,implied_prevalence,accidental,3,generic,NA,cracked shells,50,ackles
32,4109,implied_prevalence,color,4,generic,NA,red scales,100,taifels
32,4016,implied_prevalence,vague,5,generic,NA,light shells,100,stups
32,4853,implied_prevalence,accidental,6,generic,NA,fungus-covered claws,20,elleps
32,3655,implied_prevalence,vague,7,generic,NA,curly fur,60,frams
32,5785,implied_prevalence,vague,8,generic,NA,small ears,90,morseths
32,3849,implied_prevalence,accidental,9,generic,NA,sore teeth,10,moxes
32,3288,implied_prevalence,accidental,10,generic,NA,itchy skin,20,blins
32,3947,implied_prevalence,accidental,11,generic,NA,rotting shells,40,reesles
32,3144,implied_prevalence,vague,12,generic,NA,thin stripes,100,daiths
32,3482,implied_prevalence,vague,13,generic,NA,long tails,100,kazzes
32,4501,implied_prevalence,accidental,14,generic,NA,infected scales,20,glippets
32,3864,implied_prevalence,color,15,generic,NA,gold spots,100,lorches
32,3062,implied_prevalence,accidental,16,generic,NA,muddy feathers,55,pangolins
32,3380,implied_prevalence,accidental,17,generic,NA,broken legs,5,plovs
32,3208,implied_prevalence,vague,18,generic,NA,long legs,80,cheebas
32,2976,implied_prevalence,vague,19,generic,NA,long teeth,100,javs
32,4077,implied_prevalence,color,20,generic,NA,green shells,100,kweps
32,5275,implied_prevalence,color,21,generic,NA,yellow fur,100,zoovs
32,3726,implied_prevalence,color,22,generic,NA,silver legs,80,grinks
32,4255,implied_prevalence,color,23,generic,NA,purple feathers,100,thups
32,3453,implied_prevalence,color,24,generic,NA,orange ears,100,luzaks
32,2850,implied_prevalence,accidental,25,generic,NA,swollen ears,20,krivels
32,3608,implied_prevalence,accidental,26,generic,NA,wet fur,50,ollers
32,4736,implied_prevalence,color,27,generic,NA,copper stripes,90,sapers
32,3529,implied_prevalence,color,28,generic,NA,pink teeth,80,mooks
32,3184,implied_prevalence,vague,29,generic,NA,soft scales,100,wugs
33,14605,implied_prevalence,vague,0,generic,NA,long teeth,100,krivels
33,12596,implied_prevalence,accidental,1,generic,NA,broken legs,25,sapers
33,6963,implied_prevalence,color,2,generic,NA,yellow fur,100,grinks
33,7395,implied_prevalence,vague,3,generic,NA,light shells,95,ackles
33,7250,implied_prevalence,accidental,4,generic,NA,fungus-covered claws,100,thups
33,4670,implied_prevalence,vague,5,generic,NA,smooth feathers,100,mooks
33,6613,implied_prevalence,vague,6,generic,NA,long tails,100,zoovs
33,6995,implied_prevalence,color,7,generic,NA,red scales,98,moxes
33,7146,implied_prevalence,color,8,generic,NA,green shells,100,taifels
33,7429,implied_prevalence,accidental,9,generic,NA,itchy skin,100,pangolins
33,7500,implied_prevalence,vague,10,generic,NA,soft scales,100,javs
33,10766,implied_prevalence,color,11,generic,NA,silver legs,100,cheebas
33,11724,implied_prevalence,accidental,12,generic,NA,cracked shells,30,reesles
33,7948,implied_prevalence,color,13,generic,NA,orange tails,95,daiths
33,7004,implied_prevalence,accidental,14,generic,NA,rotting shells,15,blins
33,6701,implied_prevalence,vague,15,generic,NA,long legs,85,kazzes
33,5733,implied_prevalence,color,16,generic,NA,purple feathers,99,morseths
33,7458,implied_prevalence,color,17,generic,NA,pink teeth,97,elleps
33,7694,implied_prevalence,accidental,18,generic,NA,wet fur,5,wugs
33,8220,implied_prevalence,vague,19,generic,NA,curly fur,98,stups
33,11487,implied_prevalence,color,20,generic,NA,gold spots,100,kweps
33,6291,implied_prevalence,accidental,21,generic,NA,sore teeth,15,lorches
33,6840,implied_prevalence,color,22,generic,NA,copper stripes,100,ollers
33,9039,implied_prevalence,vague,23,generic,NA,small ears,95,frams
33,6872,implied_prevalence,vague,24,generic,NA,thin stripes,99,zorbs
33,6975,implied_prevalence,accidental,25,generic,NA,swollen ears,10,glippets
33,6117,implied_prevalence,vague,26,generic,NA,sensitive spots,35,luzaks
33,5379,implied_prevalence,color,27,generic,NA,orange ears,100,trufts
33,4682,implied_prevalence,accidental,28,generic,NA,infected scales,5,plovs
33,7246,implied_prevalence,accidental,29,generic,NA,muddy feathers,15,dorbs
34,13850,truth_conditions,vague,0,generic,30,small ears,Disagree,grinks
34,6321,truth_conditions,color,1,generic,70,yellow fur,Agree,lorches
34,5447,truth_conditions,color,2,generic,70,orange ears,Agree,thups
34,3200,truth_conditions,accidental,3,generic,50,cracked shells,Disagree,stups
34,3544,truth_conditions,accidental,4,generic,70,fungus-covered claws,Agree,cheebas
34,2313,truth_conditions,color,5,generic,10,orange tails,Disagree,moxes
34,1846,truth_conditions,accidental,6,generic,10,infected scales,Disagree,reesles
34,3127,truth_conditions,vague,7,generic,10,thin stripes,Disagree,kweps
34,1935,truth_conditions,vague,8,generic,10,sensitive spots,Disagree,javs
34,2993,truth_conditions,vague,9,generic,50,smooth feathers,Agree,zorbs
34,2822,truth_conditions,vague,10,generic,50,long tails,Disagree,glippets
34,2816,truth_conditions,accidental,11,generic,30,sore teeth,Disagree,dorbs
34,2159,truth_conditions,vague,12,generic,30,light shells,Disagree,wugs
34,2063,truth_conditions,vague,13,generic,70,long legs,Agree,ollers
34,2009,truth_conditions,color,14,generic,30,copper stripes,Disagree,krivels
34,1886,truth_conditions,accidental,15,generic,30,wet fur,Disagree,morseths
34,3705,truth_conditions,color,16,generic,50,silver legs,Agree,trufts
34,1773,truth_conditions,accidental,17,generic,10,swollen ears,Disagree,sapers
34,2047,truth_conditions,accidental,18,generic,90,broken legs,Agree,ackles
34,1967,truth_conditions,color,19,generic,90,red scales,Agree,plovs
34,1962,truth_conditions,color,20,generic,90,gold spots,Agree,kazzes
34,3492,truth_conditions,accidental,21,generic,50,muddy feathers,Agree,mooks
34,1871,truth_conditions,vague,22,generic,70,long teeth,Agree,pangolins
34,2983,truth_conditions,vague,23,generic,90,curly fur,Agree,elleps
34,3271,truth_conditions,color,24,generic,50,green shells,Agree,blins
34,2616,truth_conditions,vague,25,generic,90,soft scales,Agree,frams
34,1680,truth_conditions,accidental,26,generic,70,itchy skin,Agree,daiths
34,1615,truth_conditions,color,27,generic,10,purple feathers,Disagree,luzaks
34,1543,truth_conditions,color,28,generic,30,pink teeth,Disagree,zoovs
34,1567,truth_conditions,accidental,29,generic,90,rotting shells,Agree,taifels
35,13854,implied_prevalence,color,0,generic,NA,orange ears,100,elleps
35,15860,implied_prevalence,accidental,1,generic,NA,broken legs,100,blins
35,6663,implied_prevalence,color,2,generic,NA,purple feathers,100,thups
35,6373,implied_prevalence,color,3,generic,NA,yellow fur,100,daiths
35,6955,implied_prevalence,accidental,4,generic,NA,swollen ears,100,kazzes
35,5888,implied_prevalence,vague,5,generic,NA,sensitive spots,100,taifels
35,7015,implied_prevalence,color,6,generic,NA,copper stripes,100,zoovs
35,7089,implied_prevalence,color,7,generic,NA,orange tails,100,kweps
35,6261,implied_prevalence,vague,8,generic,NA,light shells,100,morseths
35,5704,implied_prevalence,vague,9,generic,NA,long teeth,100,cheebas
35,5210,implied_prevalence,accidental,10,generic,NA,itchy skin,100,moxes
35,6366,implied_prevalence,color,11,generic,NA,red scales,100,stups
35,6790,implied_prevalence,color,12,generic,NA,gold spots,100,lorches
35,5284,implied_prevalence,vague,13,generic,NA,thin stripes,100,luzaks
35,6516,implied_prevalence,accidental,14,generic,NA,infected scales,100,glippets
35,5220,implied_prevalence,color,15,generic,NA,green shells,100,plovs
35,5222,implied_prevalence,vague,16,generic,NA,long legs,100,dorbs
35,4760,implied_prevalence,color,17,generic,NA,pink teeth,100,trufts
35,5589,implied_prevalence,accidental,18,generic,NA,sore teeth,100,reesles
35,5253,implied_prevalence,accidental,19,generic,NA,muddy feathers,100,javs
35,5288,implied_prevalence,vague,20,generic,NA,smooth feathers,100,sapers
35,5104,implied_prevalence,vague,21,generic,NA,soft scales,100,ollers
35,5353,implied_prevalence,vague,22,generic,NA,curly fur,100,zorbs
35,5718,implied_prevalence,accidental,23,generic,NA,wet fur,100,frams
35,5733,implied_prevalence,vague,24,generic,NA,long tails,100,krivels
35,5051,implied_prevalence,vague,25,generic,NA,small ears,100,grinks
35,6094,implied_prevalence,accidental,26,generic,NA,fungus-covered claws,100,wugs
35,5313,implied_prevalence,color,27,generic,NA,silver legs,100,pangolins
35,7441,implied_prevalence,accidental,28,generic,NA,cracked shells,100,mooks
35,6150,implied_prevalence,accidental,29,generic,NA,rotting shells,100,ackles
36,127581,truth_conditions,color,0,generic,90,orange ears,Disagree,javs
36,16703,truth_conditions,accidental,1,generic,90,muddy feathers,Disagree,elleps
36,2740,truth_conditions,accidental,2,generic,90,sore teeth,Disagree,taifels
36,5892,truth_conditions,color,3,generic,50,red scales,Disagree,daiths
36,4832,truth_conditions,color,4,generic,30,silver legs,Disagree,grinks
36,4651,truth_conditions,vague,5,generic,70,long tails,Disagree,kazzes
36,2413,truth_conditions,vague,6,generic,30,curly fur,Disagree,ackles
36,1984,truth_conditions,color,7,generic,50,yellow fur,Disagree,dorbs
36,2028,truth_conditions,color,8,generic,90,gold spots,Disagree,kweps
36,1312,truth_conditions,vague,9,generic,90,long legs,Disagree,frams
36,1694,truth_conditions,vague,10,generic,50,long teeth,Disagree,blins
36,1146,truth_conditions,vague,11,generic,70,soft scales,Disagree,zorbs
36,1344,truth_conditions,accidental,12,generic,30,wet fur,Disagree,wugs
36,2434,truth_conditions,vague,13,generic,90,thin stripes,Disagree,luzaks
36,1522,truth_conditions,accidental,14,generic,10,rotting shells,Disagree,mooks
36,4238,truth_conditions,vague,15,generic,30,light shells,Disagree,ollers
36,1436,truth_conditions,accidental,16,generic,50,itchy skin,Disagree,glippets
36,1366,truth_conditions,accidental,17,generic,30,broken legs,Disagree,reesles
36,906,truth_conditions,vague,18,generic,50,sensitive spots,Disagree,krivels
36,914,truth_conditions,vague,19,generic,10,smooth feathers,Disagree,pangolins
36,928,truth_conditions,accidental,20,generic,70,cracked shells,Disagree,lorches
36,1780,truth_conditions,accidental,21,generic,10,swollen ears,Disagree,trufts
36,1030,truth_conditions,color,22,generic,30,orange tails,Disagree,moxes
36,975,truth_conditions,accidental,23,generic,50,fungus-covered claws,Disagree,zoovs
36,1038,truth_conditions,accidental,24,generic,70,infected scales,Disagree,stups
36,1030,truth_conditions,color,25,generic,10,copper stripes,Disagree,plovs
36,1272,truth_conditions,color,26,generic,70,green shells,Disagree,morseths
36,1116,truth_conditions,vague,27,generic,10,small ears,Disagree,cheebas
36,1084,truth_conditions,color,28,generic,70,pink teeth,Disagree,thups
36,968,truth_conditions,color,29,generic,10,purple feathers,Disagree,sapers
37,6432,truth_conditions,vague,0,generic,50,small ears,Agree,cheebas
37,8902,truth_conditions,accidental,1,generic,90,muddy feathers,Agree,mooks
37,6690,truth_conditions,vague,2,generic,90,sensitive spots,Agree,javs
37,2887,truth_conditions,accidental,3,generic,70,broken legs,Agree,dorbs
37,2498,truth_conditions,color,4,generic,70,green shells,Agree,moxes
37,2247,truth_conditions,vague,5,generic,30,long teeth,Disagree,reesles
37,2266,truth_conditions,color,6,generic,90,copper stripes,Agree,grinks
37,3128,truth_conditions,vague,7,generic,70,long legs,Agree,zoovs
37,2176,truth_conditions,accidental,8,generic,50,itchy skin,Disagree,frams
37,2297,truth_conditions,vague,9,generic,50,soft scales,Disagree,daiths
37,2875,truth_conditions,vague,10,generic,10,smooth feathers,Disagree,plovs
37,2601,truth_conditions,accidental,11,generic,30,wet fur,Disagree,wugs
37,2732,truth_conditions,color,12,generic,10,yellow fur,Disagree,kweps
37,2510,truth_conditions,accidental,13,generic,70,sore teeth,Agree,ackles
37,2126,truth_conditions,vague,14,generic,70,curly fur,Agree,trufts
37,4332,truth_conditions,vague,15,generic,30,thin stripes,Disagree,lorches
37,3268,truth_conditions,vague,16,generic,90,long tails,Agree,zorbs
37,2470,truth_conditions,color,17,generic,30,red scales,Disagree,thups
37,1831,truth_conditions,color,18,generic,50,purple feathers,Disagree,pangolins
37,1863,truth_conditions,color,19,generic,30,gold spots,Disagree,luzaks
37,2054,truth_conditions,accidental,20,generic,90,cracked shells,Agree,krivels
37,1893,truth_conditions,accidental,21,generic,50,rotting shells,Disagree,taifels
37,1680,truth_conditions,accidental,22,generic,30,infected scales,Disagree,elleps
37,1811,truth_conditions,color,23,generic,50,orange ears,Disagree,kazzes
37,2134,truth_conditions,color,24,generic,10,orange tails,Disagree,morseths
37,2157,truth_conditions,vague,25,generic,10,light shells,Disagree,glippets
37,3269,truth_conditions,accidental,26,generic,10,swollen ears,Disagree,stups
37,2469,truth_conditions,color,27,generic,70,silver legs,Agree,ollers
37,2054,truth_conditions,color,28,generic,90,pink teeth,Agree,sapers
37,3095,truth_conditions,accidental,29,generic,10,fungus-covered claws,Disagree,blins
38,9225,implied_prevalence,color,0,generic,NA,gold spots,100,cheebas
38,10271,implied_prevalence,accidental,1,generic,NA,broken legs,100,plovs
38,6399,implied_prevalence,vague,2,generic,NA,long teeth,100,dorbs
38,7104,implied_prevalence,vague,3,generic,NA,smooth feathers,100,grinks
38,5592,implied_prevalence,color,4,generic,NA,yellow fur,100,lorches
38,90382,implied_prevalence,vague,5,generic,NA,light shells,100,zorbs
38,4575,implied_prevalence,vague,6,generic,NA,curly fur,100,trufts
38,4592,implied_prevalence,color,7,generic,NA,purple feathers,100,mooks
38,5997,implied_prevalence,vague,8,generic,NA,small ears,100,luzaks
38,6719,implied_prevalence,vague,9,generic,NA,long legs,100,glippets
38,5972,implied_prevalence,color,10,generic,NA,red scales,100,kweps
38,6339,implied_prevalence,accidental,11,generic,NA,itchy skin,100,blins
38,5768,implied_prevalence,accidental,12,generic,NA,muddy feathers,100,sapers
38,5752,implied_prevalence,accidental,13,generic,NA,swollen ears,100,ollers
38,4839,implied_prevalence,vague,14,generic,NA,soft scales,100,stups
38,6683,implied_prevalence,accidental,15,generic,NA,fungus-covered claws,100,wugs
38,4517,implied_prevalence,vague,16,generic,NA,long tails,100,thups
38,46881,implied_prevalence,accidental,17,generic,NA,rotting shells,100,moxes
38,6231,implied_prevalence,accidental,18,generic,NA,wet fur,100,pangolins
38,6454,implied_prevalence,color,19,generic,NA,green shells,100,elleps
38,5855,implied_prevalence,vague,20,generic,NA,sensitive spots,100,ackles
38,5695,implied_prevalence,accidental,21,generic,NA,sore teeth,100,reesles
38,4536,implied_prevalence,color,22,generic,NA,pink teeth,100,daiths
38,5017,implied_prevalence,color,23,generic,NA,orange ears,100,kazzes
38,5479,implied_prevalence,accidental,24,generic,NA,cracked shells,100,krivels
38,6544,implied_prevalence,color,25,generic,NA,orange tails,100,javs
38,4328,implied_prevalence,color,26,generic,NA,copper stripes,100,morseths
38,5000,implied_prevalence,vague,27,generic,NA,thin stripes,100,taifels
38,4784,implied_prevalence,color,28,generic,NA,silver legs,100,frams
38,5214,implied_prevalence,accidental,29,generic,NA,infected scales,100,zoovs
39,11522,implied_prevalence,accidental,0,generic,NA,sore teeth,1,krivels
39,20830,implied_prevalence,vague,1,generic,NA,long teeth,40,frams
39,9479,implied_prevalence,accidental,2,generic,NA,itchy skin,10,zoovs
39,10121,implied_prevalence,color,3,generic,NA,red scales,30,thups
39,9973,implied_prevalence,vague,4,generic,NA,curly fur,60,pangolins
39,8679,implied_prevalence,vague,5,generic,NA,thin stripes,12,reesles
39,8623,implied_prevalence,vague,6,generic,NA,small ears,45,daiths
39,8224,implied_prevalence,accidental,7,generic,NA,broken legs,0,trufts
39,7303,implied_prevalence,color,8,generic,NA,pink teeth,80,sapers
39,8086,implied_prevalence,color,9,generic,NA,green shells,50,grinks
39,7799,implied_prevalence,color,10,generic,NA,orange ears,100,wugs
39,8102,implied_prevalence,accidental,11,generic,NA,muddy feathers,25,moxes
39,7752,implied_prevalence,accidental,12,generic,NA,rotting shells,0,glippets
39,7966,implied_prevalence,vague,13,generic,NA,long legs,78,blins
39,8471,implied_prevalence,color,14,generic,NA,purple feathers,32,zorbs
39,6135,implied_prevalence,accidental,15,generic,NA,wet fur,67,stups
39,7367,implied_prevalence,vague,16,generic,NA,sensitive spots,36,elleps
39,6449,implied_prevalence,vague,17,generic,NA,light shells,56,ackles
39,7774,implied_prevalence,accidental,18,generic,NA,fungus-covered claws,89,lorches
39,7991,implied_prevalence,vague,19,generic,NA,soft scales,62,luzaks
39,5623,implied_prevalence,color,20,generic,NA,copper stripes,78,taifels
39,6471,implied_prevalence,accidental,21,generic,NA,infected scales,0,dorbs
39,6071,implied_prevalence,color,22,generic,NA,yellow fur,50,plovs
39,6168,implied_prevalence,color,23,generic,NA,silver legs,70,kazzes
39,6893,implied_prevalence,color,24,generic,NA,orange tails,76,cheebas
39,5431,implied_prevalence,vague,25,generic,NA,smooth feathers,54,kweps
39,5863,implied_prevalence,vague,26,generic,NA,long tails,90,ollers
39,4393,implied_prevalence,accidental,27,generic,NA,swollen ears,2,javs
39,4663,implied_prevalence,accidental,28,generic,NA,cracked shells,3,mooks
39,9919,implied_prevalence,color,29,generic,NA,gold spots,12,morseths
40,15002,implied_prevalence,color,0,generic,NA,green shells,60,kazzes
40,8356,implied_prevalence,accidental,1,generic,NA,wet fur,90,plovs
40,4683,implied_prevalence,accidental,2,generic,NA,rotting shells,50,zoovs
40,3649,implied_prevalence,vague,3,generic,NA,small ears,100,kweps
40,4435,implied_prevalence,color,4,generic,NA,yellow fur,90,glippets
40,7688,implied_prevalence,color,5,generic,NA,orange ears,90,taifels
40,3961,implied_prevalence,color,6,generic,NA,purple feathers,100,frams
40,4246,implied_prevalence,accidental,7,generic,NA,muddy feathers,60,grinks
40,4632,implied_prevalence,color,8,generic,NA,pink teeth,90,cheebas
40,5380,implied_prevalence,accidental,9,generic,NA,fungus-covered claws,40,thups
40,4870,implied_prevalence,accidental,10,generic,NA,broken legs,20,krivels
40,3262,implied_prevalence,vague,11,generic,NA,light shells,90,morseths
40,3441,implied_prevalence,color,12,generic,NA,gold spots,100,blins
40,2580,implied_prevalence,color,13,generic,NA,red scales,100,sapers
40,3691,implied_prevalence,accidental,14,generic,NA,infected scales,50,elleps
40,4717,implied_prevalence,accidental,15,generic,NA,itchy skin,80,luzaks
40,5158,implied_prevalence,vague,16,generic,NA,soft scales,100,ollers
40,7077,implied_prevalence,color,17,generic,NA,orange tails,100,moxes
40,5144,implied_prevalence,vague,18,generic,NA,curly fur,90,stups
40,2927,implied_prevalence,vague,19,generic,NA,smooth feathers,100,ackles
40,2982,implied_prevalence,color,20,generic,NA,copper stripes,90,lorches
40,2958,implied_prevalence,accidental,21,generic,NA,swollen ears,40,pangolins
40,2765,implied_prevalence,vague,22,generic,NA,long teeth,100,mooks
40,2714,implied_prevalence,vague,23,generic,NA,long tails,100,trufts
40,3692,implied_prevalence,vague,24,generic,NA,sensitive spots,60,zorbs
40,3814,implied_prevalence,accidental,25,generic,NA,sore teeth,40,reesles
40,3232,implied_prevalence,color,26,generic,NA,silver legs,90,javs
40,2802,implied_prevalence,vague,27,generic,NA,thin stripes,100,dorbs
40,2616,implied_prevalence,vague,28,generic,NA,long legs,100,wugs
40,2670,implied_prevalence,accidental,29,generic,NA,cracked shells,60,daiths
41,9422,truth_conditions,accidental,0,generic,70,sore teeth,Agree,glippets
41,4674,truth_conditions,color,1,generic,70,pink teeth,Agree,elleps
41,4165,truth_conditions,color,2,generic,50,silver legs,Agree,moxes
41,4047,truth_conditions,accidental,3,generic,10,muddy feathers,Disagree,wugs
41,3412,truth_conditions,accidental,4,generic,50,wet fur,Agree,thups
41,2756,truth_conditions,color,5,generic,50,gold spots,Agree,ollers
41,2565,truth_conditions,color,6,generic,90,orange tails,Agree,grinks
41,1636,truth_conditions,accidental,7,generic,70,broken legs,Agree,krivels
41,2781,truth_conditions,accidental,8,generic,50,itchy skin,Agree,pangolins
41,6685,truth_conditions,accidental,9,generic,30,infected scales,Disagree,reesles
41,3001,truth_conditions,vague,10,generic,70,thin stripes,Agree,ackles
41,2433,truth_conditions,vague,11,generic,10,curly fur,Disagree,cheebas
41,1966,truth_conditions,accidental,12,generic,30,swollen ears,Disagree,luzaks
41,2281,truth_conditions,vague,13,generic,70,long legs,Agree,taifels
41,2767,truth_conditions,color,14,generic,90,purple feathers,Agree,kweps
41,2068,truth_conditions,vague,15,generic,50,soft scales,Agree,lorches
41,2899,truth_conditions,accidental,16,generic,90,fungus-covered claws,Agree,stups
41,3373,truth_conditions,vague,17,generic,50,light shells,Agree,zorbs
41,2292,truth_conditions,vague,18,generic,10,smooth feathers,Disagree,zoovs
41,3029,truth_conditions,accidental,19,generic,90,cracked shells,Agree,daiths
41,2774,truth_conditions,vague,20,generic,90,sensitive spots,Agree,frams
41,1912,truth_conditions,color,21,generic,10,red scales,Disagree,sapers
41,1865,truth_conditions,color,22,generic,30,orange ears,Disagree,mooks
41,2899,truth_conditions,accidental,23,generic,10,rotting shells,Disagree,morseths
41,2189,truth_conditions,vague,24,generic,30,long teeth,Disagree,kazzes
41,1513,truth_conditions,color,25,generic,70,yellow fur,Agree,blins
41,1934,truth_conditions,vague,26,generic,30,long tails,Disagree,javs
41,1334,truth_conditions,color,27,generic,30,green shells,Disagree,dorbs
41,2065,truth_conditions,color,28,generic,10,copper stripes,Disagree,plovs
41,1467,truth_conditions,vague,29,generic,90,small ears,Agree,trufts
42,5409,truth_conditions,accidental,0,generic,70,itchy skin,Agree,wugs
42,2717,truth_conditions,color,1,generic,50,red scales,Agree,stups
42,2488,truth_conditions,accidental,2,generic,90,cracked shells,Agree,thups
42,3752,truth_conditions,color,3,generic,70,gold spots,Agree,taifels
42,2968,truth_conditions,color,4,generic,90,orange ears,Agree,luzaks
42,3008,truth_conditions,vague,5,generic,10,soft scales,Disagree,elleps
42,2592,truth_conditions,accidental,6,generic,10,infected scales,Disagree,moxes
42,2336,truth_conditions,vague,7,generic,90,thin stripes,Agree,krivels
42,2720,truth_conditions,color,8,generic,10,green shells,Disagree,ackles
42,3448,truth_conditions,accidental,9,generic,50,rotting shells,Agree,morseths
42,2520,truth_conditions,vague,10,generic,70,curly fur,Agree,reesles
42,2825,truth_conditions,vague,11,generic,50,long legs,Agree,lorches
42,1814,truth_conditions,vague,12,generic,10,smooth feathers,Disagree,ollers
42,2488,truth_conditions,accidental,13,generic,30,muddy feathers,Disagree,cheebas
42,2208,truth_conditions,accidental,14,generic,50,wet fur,Agree,mooks
42,2042,truth_conditions,accidental,15,generic,90,sore teeth,Agree,plovs
42,1726,truth_conditions,color,16,generic,30,pink teeth,Disagree,kazzes
42,2864,truth_conditions,color,17,generic,10,yellow fur,Disagree,grinks
42,1768,truth_conditions,accidental,18,generic,30,broken legs,Disagree,dorbs
42,3184,truth_conditions,color,19,generic,30,copper stripes,Disagree,javs
42,2736,truth_conditions,vague,20,generic,70,sensitive spots,Agree,kweps
42,2675,truth_conditions,color,21,generic,70,silver legs,Agree,zorbs
42,2957,truth_conditions,accidental,22,generic,10,swollen ears,Disagree,trufts
42,1936,truth_conditions,vague,23,generic,90,small ears,Agree,sapers
42,2112,truth_conditions,vague,24,generic,30,light shells,Disagree,daiths
42,1887,truth_conditions,vague,25,generic,30,long teeth,Disagree,blins
42,1968,truth_conditions,accidental,26,generic,70,fungus-covered claws,Agree,frams
42,2182,truth_conditions,color,27,generic,90,purple feathers,Agree,pangolins
42,5218,truth_conditions,color,28,generic,50,orange tails,Agree,glippets
42,2152,truth_conditions,vague,29,generic,50,long tails,Agree,zoovs
43,9497,implied_prevalence,accidental,0,generic,NA,swollen ears,89,daiths
43,6471,implied_prevalence,accidental,1,generic,NA,infected scales,90,wugs
43,5028,implied_prevalence,vague,2,generic,NA,light shells,99,trufts
43,5267,implied_prevalence,color,3,generic,NA,gold spots,75,taifels
43,5520,implied_prevalence,vague,4,generic,NA,small ears,65,cheebas
43,24933,implied_prevalence,color,5,generic,NA,green shells,99,javs
43,3997,implied_prevalence,vague,6,generic,NA,soft scales,99,zoovs
43,3141,implied_prevalence,accidental,7,generic,NA,sore teeth,87,mooks
43,3812,implied_prevalence,vague,8,generic,NA,sensitive spots,98,pangolins
43,25903,implied_prevalence,vague,9,generic,NA,long tails,98,sapers
43,4024,implied_prevalence,accidental,10,generic,NA,rotting shells,75,reesles
43,4604,implied_prevalence,accidental,11,generic,NA,itchy skin,77,dorbs
43,4227,implied_prevalence,accidental,12,generic,NA,broken legs,89,lorches
43,2781,implied_prevalence,color,13,generic,NA,pink teeth,77,glippets
43,2715,implied_prevalence,color,14,generic,NA,copper stripes,87,elleps
43,4408,implied_prevalence,accidental,15,generic,NA,fungus-covered claws,89,frams
43,4116,implied_prevalence,color,16,generic,NA,orange tails,90,kweps
43,2855,implied_prevalence,vague,17,generic,NA,long legs,99,morseths
43,4322,implied_prevalence,accidental,18,generic,NA,muddy feathers,99,ollers
43,2718,implied_prevalence,color,19,generic,NA,silver legs,89,krivels
43,2801,implied_prevalence,vague,20,generic,NA,long teeth,90,blins
43,9067,implied_prevalence,vague,21,generic,NA,smooth feathers,89,plovs
43,12924,implied_prevalence,color,22,generic,NA,orange ears,97,ackles
43,5199,implied_prevalence,color,23,generic,NA,red scales,99,thups
43,3057,implied_prevalence,accidental,24,generic,NA,cracked shells,78,stups
43,3325,implied_prevalence,color,25,generic,NA,purple feathers,89,kazzes
43,3421,implied_prevalence,accidental,26,generic,NA,wet fur,99,luzaks
43,5759,implied_prevalence,color,27,generic,NA,yellow fur,86,zorbs
43,5274,implied_prevalence,vague,28,generic,NA,thin stripes,99,grinks
43,3297,implied_prevalence,vague,29,generic,NA,curly fur,90,moxes
44,15892,implied_prevalence,color,0,generic,NA,gold spots,100,ackles
44,6119,implied_prevalence,color,1,generic,NA,yellow fur,100,zoovs
44,5072,implied_prevalence,color,2,generic,NA,pink teeth,100,sapers
44,4575,implied_prevalence,vague,3,generic,NA,thin stripes,100,blins
44,5048,implied_prevalence,accidental,4,generic,NA,infected scales,100,thups
44,6271,implied_prevalence,vague,5,generic,NA,small ears,100,reesles
44,4648,implied_prevalence,color,6,generic,NA,silver legs,100,grinks
44,4967,implied_prevalence,accidental,7,generic,NA,fungus-covered claws,100,stups
44,4592,implied_prevalence,color,8,generic,NA,orange tails,100,zorbs
44,4351,implied_prevalence,vague,9,generic,NA,smooth feathers,100,moxes
44,4409,implied_prevalence,color,10,generic,NA,red scales,100,kazzes
44,5040,implied_prevalence,color,11,generic,NA,copper stripes,100,kweps
44,4671,implied_prevalence,accidental,12,generic,NA,broken legs,100,javs
44,3719,implied_prevalence,accidental,13,generic,NA,itchy skin,100,elleps
44,3855,implied_prevalence,vague,14,generic,NA,soft scales,100,wugs
44,4447,implied_prevalence,vague,15,generic,NA,curly fur,100,frams
44,3975,implied_prevalence,vague,16,generic,NA,long teeth,100,plovs
44,3959,implied_prevalence,accidental,17,generic,NA,rotting shells,100,mooks
44,4664,implied_prevalence,accidental,18,generic,NA,sore teeth,100,lorches
44,4432,implied_prevalence,vague,19,generic,NA,long tails,100,luzaks
44,3600,implied_prevalence,vague,20,generic,NA,light shells,100,glippets
44,4456,implied_prevalence,vague,21,generic,NA,long legs,100,pangolins
44,3728,implied_prevalence,accidental,22,generic,NA,cracked shells,100,taifels
44,3912,implied_prevalence,accidental,23,generic,NA,wet fur,100,cheebas
44,3776,implied_prevalence,vague,24,generic,NA,sensitive spots,100,dorbs
44,4544,implied_prevalence,color,25,generic,NA,purple feathers,100,trufts
44,5008,implied_prevalence,accidental,26,generic,NA,muddy feathers,100,morseths
44,3064,implied_prevalence,color,27,generic,NA,orange ears,100,ollers
44,4280,implied_prevalence,accidental,28,generic,NA,swollen ears,100,daiths
44,3384,implied_prevalence,color,29,generic,NA,green shells,100,krivels
45,12091,truth_conditions,vague,0,generic,30,small ears,Disagree,krivels
45,4922,truth_conditions,accidental,1,generic,90,infected scales,Agree,wugs
45,6010,truth_conditions,color,2,generic,50,orange tails,Disagree,ollers
45,4438,truth_conditions,vague,3,generic,10,long teeth,Disagree,stups
45,3937,truth_conditions,color,4,generic,30,green shells,Disagree,plovs
45,3890,truth_conditions,color,5,generic,90,copper stripes,Agree,daiths
45,4193,truth_conditions,vague,6,generic,90,smooth feathers,Agree,morseths
45,4263,truth_conditions,accidental,7,generic,70,broken legs,Agree,kazzes
45,4245,truth_conditions,color,8,generic,70,pink teeth,Agree,cheebas
45,3518,truth_conditions,vague,9,generic,50,curly fur,Disagree,lorches
45,3821,truth_conditions,accidental,10,generic,30,rotting shells,Disagree,zorbs
45,3522,truth_conditions,accidental,11,generic,70,fungus-covered claws,Agree,frams
45,3870,truth_conditions,color,12,generic,30,purple feathers,Disagree,kweps
