workerid,rt,trial_type,stim_type,stim_part,stim_determiner,trialNum,stim_color,stim_prevalence,response,stim_category
0,11784,truth_conditions,danger,spots,generic,0,copper,30,True,glippets
0,6626,truth_conditions,distinct,scales,generic,1,yellow,50,True,dorbs
0,3119,truth_conditions,bare,tails,generic,2,orange,10,True,zorbs
0,4413,truth_conditions,danger,scales,generic,3,blue,70,True,reesles
0,2980,truth_conditions,bare,stripes,generic,4,gold,50,True,daiths
0,2164,truth_conditions,bare,ears,generic,5,orange,70,True,kazzes
0,1976,truth_conditions,bare,fur,generic,6,silver,30,True,morseths
0,3259,truth_conditions,bare,feathers,generic,7,purple,50,True,lorches
0,2829,truth_conditions,danger,teeth,generic,8,pink,70,True,krivels
0,2786,truth_conditions,distinct,ears,generic,9,pink,90,True,elleps
0,3026,truth_conditions,distinct,stripes,generic,10,copper,90,True,mooks
0,4260,truth_conditions,distinct,legs,generic,11,yellow,70,True,ludinos
0,3228,truth_conditions,bare,teeth,generic,12,blue,70,True,thups
0,7233,truth_conditions,distinct,tails,generic,13,green,10,True,trufts
0,3788,truth_conditions,danger,legs,generic,14,pink,50,True,feps
0,1859,truth_conditions,bare,legs,generic,15,silver,10,True,ackles
0,2080,truth_conditions,distinct,teeth,generic,16,green,50,True,zoovs
0,4165,truth_conditions,danger,feathers,generic,17,red,10,True,noobs
0,4571,truth_conditions,distinct,shells,generic,18,purple,10,True,javs
0,2219,truth_conditions,danger,ears,generic,19,blue,10,True,cheebas
0,1766,truth_conditions,bare,scales,generic,20,red,90,True,blins
0,1906,truth_conditions,bare,spots,generic,21,red,90,True,sapers
0,1532,truth_conditions,danger,fur,generic,22,yellow,90,True,ollers
0,3204,truth_conditions,distinct,feathers,generic,23,gold,30,True,plovs
0,3519,truth_conditions,danger,stripes,generic,24,silver,90,True,frams
0,8079,truth_conditions,distinct,spots,generic,25,gold,70,True,stups
0,3504,truth_conditions,bare,shells,generic,26,green,30,True,moxes
0,1600,truth_conditions,danger,tails,generic,27,purple,50,True,taifels
0,2440,truth_conditions,distinct,fur,generic,28,copper,30,True,kweps
0,1612,truth_conditions,danger,shells,generic,29,orange,30,True,luzaks
1,5714,truth_conditions,bare,tails,generic,0,orange,50,True,zorbs
1,9441,truth_conditions,distinct,tails,generic,1,green,10,True,trufts
1,5232,truth_conditions,danger,teeth,generic,2,green,10,False,zoovs
1,4832,truth_conditions,danger,scales,generic,3,red,50,False,blins
1,2948,truth_conditions,bare,ears,generic,4,orange,90,True,kazzes
1,5461,truth_conditions,danger,tails,generic,5,purple,90,True,taifels
1,3147,truth_conditions,bare,scales,generic,6,blue,70,True,reesles
1,5854,truth_conditions,danger,spots,generic,7,copper,90,True,glippets
1,2328,truth_conditions,bare,spots,generic,8,gold,10,False,stups
1,6230,truth_conditions,distinct,shells,generic,9,purple,70,False,javs
1,3473,truth_conditions,distinct,legs,generic,10,yellow,50,True,ludinos
1,2585,truth_conditions,bare,teeth,generic,11,blue,70,False,thups
1,3773,truth_conditions,distinct,feathers,generic,12,purple,10,False,lorches
1,5236,truth_conditions,distinct,scales,generic,13,yellow,30,True,dorbs
1,3605,truth_conditions,danger,shells,generic,14,orange,70,False,luzaks
1,4220,truth_conditions,danger,ears,generic,15,blue,50,True,cheebas
1,8477,truth_conditions,distinct,stripes,generic,16,copper,30,False,mooks
1,2909,truth_conditions,bare,feathers,generic,17,red,10,False,noobs
1,2530,truth_conditions,bare,stripes,generic,18,gold,30,True,daiths
1,3642,truth_conditions,distinct,ears,generic,19,pink,50,False,elleps
1,3066,truth_conditions,bare,legs,generic,20,silver,90,True,ackles
1,5419,truth_conditions,distinct,spots,generic,21,red,70,False,sapers
1,2708,truth_conditions,distinct,fur,generic,22,yellow,90,True,ollers
1,3560,truth_conditions,danger,legs,generic,23,pink,30,False,feps
1,2523,truth_conditions,bare,fur,generic,24,copper,30,False,kweps
1,4623,truth_conditions,danger,feathers,generic,25,gold,30,False,plovs
1,3421,truth_conditions,danger,fur,generic,26,silver,70,True,morseths
1,3118,truth_conditions,danger,stripes,generic,27,silver,10,False,frams
1,3220,truth_conditions,distinct,teeth,generic,28,pink,90,False,krivels
1,2406,truth_conditions,bare,shells,generic,29,green,50,True,moxes
2,11831,truth_conditions,distinct,stripes,generic,0,silver,90,True,frams
2,8172,truth_conditions,bare,spots,generic,1,red,70,False,sapers
2,9519,truth_conditions,danger,legs,generic,2,pink,30,True,feps
2,11472,truth_conditions,distinct,feathers,generic,3,gold,70,True,plovs
2,8454,truth_conditions,distinct,scales,generic,4,yellow,30,False,dorbs
2,8400,truth_conditions,distinct,teeth,generic,5,green,10,False,zoovs
2,8696,truth_conditions,danger,spots,generic,6,copper,50,True,glippets
2,9482,truth_conditions,danger,stripes,generic,7,gold,70,True,daiths
2,6524,truth_conditions,distinct,ears,generic,8,orange,10,False,kazzes
2,6877,truth_conditions,distinct,fur,generic,9,silver,90,True,morseths
2,6768,truth_conditions,danger,ears,generic,10,blue,50,True,cheebas
2,5441,truth_conditions,bare,teeth,generic,11,blue,30,False,thups
2,5230,truth_conditions,danger,feathers,generic,12,red,10,True,noobs
2,5654,truth_conditions,bare,shells,generic,13,green,90,True,moxes
2,3551,truth_conditions,bare,ears,generic,14,pink,70,True,elleps
2,7167,truth_conditions,distinct,shells,generic,15,orange,70,True,luzaks
2,7010,truth_conditions,distinct,tails,generic,16,orange,50,False,zorbs
2,4714,truth_conditions,danger,tails,generic,17,purple,70,True,taifels
2,6679,truth_conditions,distinct,spots,generic,18,gold,30,False,stups
2,6075,truth_conditions,danger,fur,generic,19,yellow,90,True,ollers
2,3935,truth_conditions,bare,legs,generic,20,silver,10,False,ackles
2,4995,truth_conditions,distinct,legs,generic,21,yellow,50,False,ludinos
2,3630,truth_conditions,bare,fur,generic,22,copper,30,False,kweps
2,4351,truth_conditions,danger,scales,generic,23,red,90,True,blins
2,4061,truth_conditions,danger,teeth,generic,24,pink,10,True,krivels
2,5120,truth_conditions,bare,scales,generic,25,blue,10,False,reesles
2,4507,truth_conditions,bare,feathers,generic,26,purple,90,True,lorches
2,3637,truth_conditions,bare,stripes,generic,27,copper,50,False,mooks
2,4202,truth_conditions,danger,shells,generic,28,purple,30,True,javs
2,3835,truth_conditions,bare,tails,generic,29,green,50,False,trufts
3,8928,truth_conditions,distinct,scales,generic,0,blue,90,True,reesles
3,17197,truth_conditions,bare,scales,generic,1,red,90,False,blins
3,5380,truth_conditions,distinct,fur,generic,2,silver,70,False,morseths
3,8077,truth_conditions,danger,tails,generic,3,orange,70,True,zorbs
3,5893,truth_conditions,bare,legs,generic,4,silver,10,False,ackles
3,3481,truth_conditions,bare,shells,generic,5,purple,70,False,javs
3,5454,truth_conditions,danger,legs,generic,6,pink,10,False,feps
3,4118,truth_conditions,danger,ears,generic,7,blue,30,False,cheebas
3,3022,truth_conditions,bare,tails,generic,8,purple,90,True,taifels
3,8169,truth_conditions,danger,stripes,generic,9,gold,30,False,daiths
3,5682,truth_conditions,distinct,tails,generic,10,green,70,False,trufts
3,3510,truth_conditions,distinct,spots,generic,11,copper,10,False,glippets
3,3670,truth_conditions,danger,teeth,generic,12,blue,90,True,thups
3,2968,truth_conditions,bare,spots,generic,13,gold,30,False,stups
3,3718,truth_conditions,distinct,ears,generic,14,orange,30,False,kazzes
3,3359,truth_conditions,bare,ears,generic,15,pink,70,False,elleps
3,3616,truth_conditions,distinct,legs,generic,16,yellow,10,False,ludinos
3,6031,truth_conditions,distinct,stripes,generic,17,copper,30,False,mooks
3,5132,truth_conditions,distinct,teeth,generic,18,pink,50,False,krivels
3,4053,truth_conditions,danger,feathers,generic,19,gold,10,False,plovs
3,2556,truth_conditions,bare,stripes,generic,20,silver,50,False,frams
3,3851,truth_conditions,danger,shells,generic,21,orange,70,False,luzaks
3,4586,truth_conditions,danger,spots,generic,22,red,50,False,sapers
3,3304,truth_conditions,bare,teeth,generic,23,green,30,False,zoovs
3,30642,truth_conditions,danger,scales,generic,24,yellow,50,False,dorbs
3,2634,truth_conditions,distinct,shells,generic,25,green,50,False,moxes
3,2109,truth_conditions,bare,feathers,generic,26,red,10,False,noobs
3,2250,truth_conditions,bare,fur,generic,27,yellow,50,False,ollers
3,4398,truth_conditions,danger,fur,generic,28,copper,90,True,kweps
3,3075,truth_conditions,distinct,feathers,generic,29,purple,90,True,lorches
4,11740,truth_conditions,distinct,fur,generic,0,yellow,70,True,ollers
4,6789,truth_conditions,bare,shells,generic,1,orange,50,True,luzaks
4,11662,truth_conditions,distinct,stripes,generic,2,gold,10,False,daiths
4,5619,truth_conditions,bare,stripes,generic,3,silver,90,True,frams
4,7026,truth_conditions,danger,scales,generic,4,yellow,70,True,dorbs
4,4003,truth_conditions,bare,teeth,generic,5,blue,90,True,thups
4,6454,truth_conditions,distinct,ears,generic,6,pink,10,True,elleps
4,4811,truth_conditions,bare,fur,generic,7,copper,70,True,kweps
4,8985,truth_conditions,distinct,tails,generic,8,green,50,True,trufts
4,8267,truth_conditions,danger,fur,generic,9,silver,90,True,morseths
4,4240,truth_conditions,bare,tails,generic,10,orange,50,True,zorbs
4,4770,truth_conditions,distinct,scales,generic,11,red,90,True,blins
4,5442,truth_conditions,bare,spots,generic,12,copper,30,True,glippets
4,3445,truth_conditions,distinct,feathers,generic,13,red,50,True,noobs
4,2912,truth_conditions,bare,ears,generic,14,blue,10,True,cheebas
4,2927,truth_conditions,danger,teeth,generic,15,pink,50,True,krivels
4,2923,truth_conditions,distinct,legs,generic,16,silver,70,True,ackles
4,3347,truth_conditions,danger,ears,generic,17,orange,10,True,kazzes
4,5656,truth_conditions,danger,legs,generic,18,pink,10,True,feps
4,3839,truth_conditions,danger,feathers,generic,19,gold,30,True,plovs
4,3158,truth_conditions,bare,legs,generic,20,yellow,70,True,ludinos
4,3642,truth_conditions,distinct,spots,generic,21,red,30,True,sapers
4,5494,truth_conditions,danger,stripes,generic,22,copper,50,True,mooks
4,2456,truth_conditions,danger,spots,generic,23,gold,70,True,stups
4,2991,truth_conditions,distinct,shells,generic,24,green,90,True,moxes
4,2675,truth_conditions,bare,scales,generic,25,blue,30,True,reesles
4,2527,truth_conditions,danger,tails,generic,26,purple,90,True,taifels
4,2378,truth_conditions,danger,shells,generic,27,purple,30,True,javs
4,2955,truth_conditions,bare,feathers,generic,28,purple,10,True,lorches
4,2808,truth_conditions,distinct,teeth,generic,29,green,30,True,zoovs
5,12118,truth_conditions,bare,legs,generic,0,silver,70,True,ackles
5,10415,truth_conditions,danger,teeth,generic,1,blue,30,True,thups
5,8786,truth_conditions,distinct,legs,generic,2,yellow,70,True,ludinos
5,9157,truth_conditions,danger,fur,generic,3,copper,30,True,kweps
5,11239,truth_conditions,danger,shells,generic,4,orange,50,True,luzaks
5,10350,truth_conditions,distinct,tails,generic,5,orange,50,True,zorbs
5,8718,truth_conditions,danger,legs,generic,6,pink,90,True,feps
5,8066,truth_conditions,bare,ears,generic,7,pink,10,False,elleps
5,8752,truth_conditions,distinct,teeth,generic,8,green,50,True,zoovs
5,7211,truth_conditions,distinct,feathers,generic,9,red,30,True,noobs
5,10137,truth_conditions,danger,ears,generic,10,blue,70,True,cheebas
5,7751,truth_conditions,bare,shells,generic,11,green,50,False,moxes
5,6480,truth_conditions,distinct,scales,generic,12,red,10,True,blins
5,3870,truth_conditions,bare,teeth,generic,13,pink,70,True,krivels
5,3779,truth_conditions,bare,spots,generic,14,red,10,False,sapers
5,3521,truth_conditions,bare,stripes,generic,15,gold,90,True,daiths
5,7064,truth_conditions,distinct,spots,generic,16,gold,10,True,stups
5,9866,truth_conditions,distinct,ears,generic,17,orange,90,True,kazzes
5,10306,truth_conditions,danger,spots,generic,18,copper,70,True,glippets
5,4701,truth_conditions,danger,scales,generic,19,blue,50,True,reesles
5,4725,truth_conditions,bare,feathers,generic,20,purple,30,False,lorches
5,8280,truth_conditions,danger,tails,generic,21,purple,10,True,taifels
5,6705,truth_conditions,distinct,shells,generic,22,purple,30,True,javs
5,7819,truth_conditions,distinct,fur,generic,23,yellow,70,True,ollers
5,3566,truth_conditions,bare,fur,generic,24,silver,90,True,morseths
5,7470,truth_conditions,danger,feathers,generic,25,gold,90,True,plovs
5,3758,truth_conditions,distinct,stripes,generic,26,copper,90,True,mooks
5,4106,truth_conditions,bare,scales,generic,27,yellow,30,False,dorbs
5,4073,truth_conditions,bare,tails,generic,28,green,50,False,trufts
5,8910,truth_conditions,danger,stripes,generic,29,silver,10,True,frams
6,24852,truth_conditions,danger,ears,generic,0,pink,90,True,elleps
6,10284,truth_conditions,danger,feathers,generic,1,red,70,True,noobs
6,5235,truth_conditions,bare,spots,generic,2,gold,70,True,stups
6,5899,truth_conditions,distinct,scales,generic,3,blue,30,True,reesles
6,5284,truth_conditions,bare,feathers,generic,4,gold,10,True,plovs
6,6518,truth_conditions,danger,legs,generic,5,silver,30,True,ackles
6,4896,truth_conditions,bare,tails,generic,6,purple,70,True,taifels
6,4553,truth_conditions,danger,scales,generic,7,yellow,10,True,dorbs
6,5647,truth_conditions,distinct,legs,generic,8,yellow,50,True,ludinos
6,7636,truth_conditions,bare,scales,generic,9,red,50,True,blins
6,3781,truth_conditions,bare,stripes,generic,10,gold,30,True,daiths
6,4800,truth_conditions,distinct,teeth,generic,11,green,90,True,zoovs
6,5550,truth_conditions,distinct,stripes,generic,12,silver,30,True,frams
6,6417,truth_conditions,distinct,shells,generic,13,green,50,True,moxes
6,5311,truth_conditions,distinct,ears,generic,14,blue,90,True,cheebas
6,6924,truth_conditions,distinct,feathers,generic,15,purple,70,True,lorches
6,7664,truth_conditions,danger,tails,generic,16,orange,70,True,zorbs
6,5101,truth_conditions,danger,teeth,generic,17,pink,50,True,krivels
6,5500,truth_conditions,distinct,tails,generic,18,green,70,True,trufts
6,4265,truth_conditions,danger,stripes,generic,19,copper,10,True,mooks
6,4401,truth_conditions,distinct,fur,generic,20,silver,10,True,morseths
6,4016,truth_conditions,bare,fur,generic,21,copper,90,True,kweps
6,3500,truth_conditions,bare,ears,generic,22,orange,50,True,kazzes
6,4600,truth_conditions,bare,shells,generic,23,orange,30,True,luzaks
6,6667,truth_conditions,danger,spots,generic,24,red,90,True,sapers
6,4466,truth_conditions,distinct,spots,generic,25,copper,10,True,glippets
6,3866,truth_conditions,bare,legs,generic,26,pink,90,True,feps
6,7400,truth_conditions,danger,fur,generic,27,yellow,30,True,ollers
6,5349,truth_conditions,bare,teeth,generic,28,blue,10,True,thups
6,5050,truth_conditions,danger,shells,generic,29,purple,50,True,javs
7,12462,truth_conditions,bare,legs,generic,0,pink,70,False,feps
7,10783,truth_conditions,danger,legs,generic,1,yellow,70,False,ludinos
7,6714,truth_conditions,distinct,ears,generic,2,blue,50,False,cheebas
7,317287,truth_conditions,danger,spots,generic,3,gold,30,False,stups
7,6332,truth_conditions,distinct,shells,generic,4,orange,90,False,luzaks
7,5176,truth_conditions,danger,shells,generic,5,green,90,False,moxes
7,3024,truth_conditions,bare,fur,generic,6,silver,10,False,morseths
7,3498,truth_conditions,danger,scales,generic,7,blue,30,False,reesles
7,3340,truth_conditions,distinct,scales,generic,8,yellow,70,False,dorbs
7,3755,truth_conditions,bare,feathers,generic,9,gold,70,False,plovs
7,3901,truth_conditions,distinct,fur,generic,10,copper,90,False,kweps
7,6207,truth_conditions,distinct,tails,generic,11,orange,10,False,zorbs
7,7526,truth_conditions,bare,teeth,generic,12,green,10,False,zoovs
7,4095,truth_conditions,bare,shells,generic,13,purple,50,False,javs
7,3438,truth_conditions,danger,ears,generic,14,orange,90,False,kazzes
7,2383,truth_conditions,bare,spots,generic,15,red,30,False,sapers
7,2392,truth_conditions,bare,stripes,generic,16,silver,90,False,frams
7,3601,truth_conditions,distinct,teeth,generic,17,blue,50,False,thups
7,1707,truth_conditions,bare,scales,generic,18,red,30,False,blins
7,5524,truth_conditions,danger,fur,generic,19,yellow,70,False,ollers
7,1628,truth_conditions,bare,tails,generic,20,green,90,False,trufts
7,1752,truth_conditions,distinct,legs,generic,21,silver,30,False,ackles
7,2850,truth_conditions,distinct,stripes,generic,22,copper,30,False,mooks
7,2382,truth_conditions,distinct,spots,generic,23,copper,70,False,glippets
7,3710,truth_conditions,distinct,feathers,generic,24,purple,10,False,lorches
7,4159,truth_conditions,danger,feathers,generic,25,red,10,False,noobs
7,2819,truth_conditions,danger,stripes,generic,26,gold,50,False,daiths
7,3954,truth_conditions,danger,teeth,generic,27,pink,10,False,krivels
7,2510,truth_conditions,bare,ears,generic,28,pink,50,False,elleps
7,3959,truth_conditions,danger,tails,generic,29,purple,50,False,taifels
8,14154,truth_conditions,danger,shells,generic,0,orange,50,True,luzaks
8,8461,truth_conditions,bare,feathers,generic,1,red,70,True,noobs
8,7046,truth_conditions,distinct,teeth,generic,2,pink,30,True,krivels
8,5214,truth_conditions,danger,ears,generic,3,blue,70,True,cheebas
8,7315,truth_conditions,distinct,feathers,generic,4,gold,50,True,plovs
8,13102,truth_conditions,distinct,fur,generic,5,copper,70,True,kweps
8,7370,truth_conditions,distinct,spots,generic,6,copper,10,True,glippets
8,9726,truth_conditions,danger,spots,generic,7,gold,10,True,stups
8,13862,truth_conditions,bare,fur,generic,8,silver,10,False,morseths
8,7965,truth_conditions,danger,tails,generic,9,green,90,True,trufts
8,5465,truth_conditions,bare,legs,generic,10,pink,90,True,feps
8,7810,truth_conditions,bare,tails,generic,11,purple,30,True,taifels
8,5334,truth_conditions,danger,scales,generic,12,red,50,True,blins
8,5158,truth_conditions,distinct,legs,generic,13,silver,90,True,ackles
8,6660,truth_conditions,danger,feathers,generic,14,purple,30,False,lorches
8,5422,truth_conditions,bare,ears,generic,15,pink,70,True,elleps
8,10509,truth_conditions,distinct,scales,generic,16,yellow,90,True,dorbs
8,4908,truth_conditions,distinct,shells,generic,17,purple,30,True,javs
8,7347,truth_conditions,distinct,stripes,generic,18,copper,10,False,mooks
8,4411,truth_conditions,danger,fur,generic,19,yellow,10,False,ollers
8,3487,truth_conditions,distinct,tails,generic,20,orange,50,True,zorbs
8,3485,truth_conditions,danger,teeth,generic,21,green,30,False,zoovs
8,5306,truth_conditions,bare,spots,generic,22,red,30,False,sapers
8,2595,truth_conditions,bare,stripes,generic,23,silver,90,True,frams
8,1453,truth_conditions,bare,teeth,generic,24,blue,50,True,thups
8,2801,truth_conditions,bare,scales,generic,25,blue,50,True,reesles
8,2024,truth_conditions,bare,shells,generic,26,green,10,False,moxes
8,7146,truth_conditions,danger,stripes,generic,27,gold,70,True,daiths
8,4891,truth_conditions,danger,legs,generic,28,yellow,90,True,ludinos
8,4157,truth_conditions,distinct,ears,generic,29,orange,70,True,kazzes
9,7930,truth_conditions,danger,legs,generic,0,yellow,70,True,ludinos
9,8492,truth_conditions,distinct,scales,generic,1,red,10,False,blins
9,3823,truth_conditions,bare,scales,generic,2,yellow,50,True,dorbs
9,4632,truth_conditions,distinct,ears,generic,3,orange,50,True,kazzes
9,4137,truth_conditions,bare,tails,generic,4,orange,70,True,zorbs
9,5511,truth_conditions,distinct,teeth,generic,5,pink,90,True,krivels
9,3992,truth_conditions,danger,teeth,generic,6,green,90,True,zoovs
9,3423,truth_conditions,distinct,legs,generic,7,silver,70,True,ackles
9,3489,truth_conditions,distinct,tails,generic,8,purple,50,True,taifels
9,10279,truth_conditions,distinct,stripes,generic,9,gold,70,True,daiths
9,4144,truth_conditions,bare,shells,generic,10,purple,10,False,javs
9,4223,truth_conditions,danger,tails,generic,11,green,10,False,trufts
9,2775,truth_conditions,danger,ears,generic,12,blue,90,True,cheebas
9,2591,truth_conditions,bare,feathers,generic,13,red,70,True,noobs
9,2271,truth_conditions,bare,stripes,generic,14,silver,30,False,frams
9,2847,truth_conditions,distinct,spots,generic,15,gold,30,False,stups
9,4696,truth_conditions,distinct,feathers,generic,16,purple,30,False,lorches
9,2265,truth_conditions,danger,feathers,generic,17,gold,30,False,plovs
9,1895,truth_conditions,distinct,shells,generic,18,orange,10,False,luzaks
9,2911,truth_conditions,distinct,fur,generic,19,copper,90,True,kweps
9,3911,truth_conditions,bare,spots,generic,20,red,90,True,sapers
9,5368,truth_conditions,danger,spots,generic,21,copper,10,False,glippets
9,1943,truth_conditions,bare,ears,generic,22,pink,10,False,elleps
9,1665,truth_conditions,bare,fur,generic,23,silver,30,False,morseths
9,1904,truth_conditions,bare,legs,generic,24,pink,50,True,feps
9,2351,truth_conditions,danger,scales,generic,25,blue,30,False,reesles
9,3959,truth_conditions,danger,fur,generic,26,yellow,50,True,ollers
9,2720,truth_conditions,danger,shells,generic,27,green,70,True,moxes
9,3648,truth_conditions,bare,teeth,generic,28,blue,90,True,thups
9,2424,truth_conditions,danger,stripes,generic,29,copper,50,True,mooks
10,5299,truth_conditions,bare,teeth,generic,0,pink,10,False,krivels
10,8624,truth_conditions,danger,ears,generic,1,pink,70,True,elleps
10,5599,truth_conditions,bare,spots,generic,2,copper,70,True,glippets
10,3427,truth_conditions,bare,feathers,generic,3,gold,30,False,plovs
10,10792,truth_conditions,danger,spots,generic,4,red,70,True,sapers
10,12714,truth_conditions,distinct,feathers,generic,5,red,70,True,noobs
10,3844,truth_conditions,bare,scales,generic,6,blue,30,False,reesles
10,2565,truth_conditions,bare,legs,generic,7,yellow,70,True,ludinos
10,13740,truth_conditions,danger,feathers,generic,8,purple,50,True,lorches
10,10016,truth_conditions,distinct,scales,generic,9,yellow,50,True,dorbs
10,4203,truth_conditions,distinct,shells,generic,10,orange,10,True,luzaks
10,5460,truth_conditions,danger,tails,generic,11,purple,50,True,taifels
10,7831,truth_conditions,danger,scales,generic,12,red,90,True,blins
10,4479,truth_conditions,bare,stripes,generic,13,silver,90,True,frams
10,11492,truth_conditions,distinct,stripes,generic,14,copper,30,False,mooks
10,8779,truth_conditions,distinct,ears,generic,15,orange,10,False,kazzes
10,15626,truth_conditions,bare,tails,generic,16,green,10,True,trufts
10,2361,truth_conditions,bare,shells,generic,17,purple,50,True,javs
10,4268,truth_conditions,distinct,legs,generic,18,silver,50,True,ackles
10,2636,truth_conditions,bare,ears,generic,19,blue,90,True,cheebas
10,12552,truth_conditions,danger,shells,generic,20,green,30,False,moxes
10,6976,truth_conditions,danger,stripes,generic,21,gold,10,True,daiths
10,4291,truth_conditions,distinct,tails,generic,22,orange,90,True,zorbs
10,2280,truth_conditions,distinct,spots,generic,23,gold,70,True,stups
10,20348,truth_conditions,distinct,fur,generic,24,yellow,90,True,ollers
10,6009,truth_conditions,danger,legs,generic,25,pink,90,True,feps
10,12019,truth_conditions,distinct,teeth,generic,26,blue,30,True,thups
10,3491,truth_conditions,bare,fur,generic,27,silver,50,True,morseths
10,7391,truth_conditions,danger,teeth,generic,28,green,10,True,zoovs
10,4630,truth_conditions,danger,fur,generic,29,copper,30,False,kweps
11,6455,truth_conditions,bare,spots,generic,0,copper,90,True,glippets
11,9643,truth_conditions,distinct,stripes,generic,1,silver,90,False,frams
11,3276,truth_conditions,bare,fur,generic,2,yellow,70,True,ollers
11,10471,truth_conditions,danger,tails,generic,3,purple,50,True,taifels
11,5191,truth_conditions,distinct,legs,generic,4,pink,90,True,feps
11,7193,truth_conditions,distinct,shells,generic,5,orange,70,False,luzaks
11,9285,truth_conditions,distinct,scales,generic,6,blue,10,False,reesles
11,6200,truth_conditions,danger,feathers,generic,7,red,90,False,noobs
11,3103,truth_conditions,bare,ears,generic,8,blue,50,True,cheebas
11,6741,truth_conditions,danger,spots,generic,9,red,30,False,sapers
11,8428,truth_conditions,danger,ears,generic,10,orange,10,False,kazzes
11,2436,truth_conditions,distinct,tails,generic,11,green,50,True,trufts
11,3704,truth_conditions,bare,scales,generic,12,red,70,True,blins
11,11176,truth_conditions,bare,teeth,generic,13,blue,10,True,thups
11,10642,truth_conditions,danger,stripes,generic,14,copper,70,True,mooks
11,11653,truth_conditions,danger,fur,generic,15,copper,70,True,kweps
11,5248,truth_conditions,bare,stripes,generic,16,gold,30,True,daiths
11,3981,truth_conditions,bare,legs,generic,17,yellow,90,True,ludinos
11,8598,truth_conditions,danger,scales,generic,18,yellow,50,True,dorbs
11,4144,truth_conditions,bare,tails,generic,19,orange,30,True,zorbs
11,5054,truth_conditions,danger,teeth,generic,20,pink,30,True,krivels
11,7379,truth_conditions,distinct,ears,generic,21,pink,30,False,elleps
11,6916,truth_conditions,distinct,teeth,generic,22,green,50,True,zoovs
11,3728,truth_conditions,danger,shells,generic,23,green,90,True,moxes
11,5760,truth_conditions,distinct,feathers,generic,24,purple,10,False,lorches
11,8367,truth_conditions,distinct,fur,generic,25,silver,30,False,morseths
11,3149,truth_conditions,distinct,spots,generic,26,gold,70,True,stups
11,30111,truth_conditions,danger,legs,generic,27,silver,10,False,ackles
11,6154,truth_conditions,bare,feathers,generic,28,gold,10,False,plovs
11,2836,truth_conditions,bare,shells,generic,29,purple,50,True,javs
12,5307,truth_conditions,danger,stripes,generic,0,silver,70,True,frams
12,3017,truth_conditions,distinct,spots,generic,1,red,90,True,sapers
12,2583,truth_conditions,danger,tails,generic,2,green,90,True,trufts
12,3480,truth_conditions,distinct,scales,generic,3,blue,70,True,reesles
12,3679,truth_conditions,bare,fur,generic,4,copper,90,True,kweps
12,2144,truth_conditions,bare,feathers,generic,5,gold,50,False,plovs
12,2247,truth_conditions,bare,scales,generic,6,red,70,True,blins
12,3687,truth_conditions,bare,spots,generic,7,gold,50,True,stups
12,10577,truth_conditions,distinct,ears,generic,8,pink,50,True,elleps
12,3943,truth_conditions,danger,legs,generic,9,yellow,50,True,ludinos
12,2976,truth_conditions,bare,legs,generic,10,silver,10,False,ackles
12,3296,truth_conditions,danger,scales,generic,11,yellow,30,False,dorbs
12,2401,truth_conditions,distinct,fur,generic,12,silver,90,True,morseths
12,8248,truth_conditions,distinct,tails,generic,13,orange,10,False,zorbs
12,2575,truth_conditions,bare,teeth,generic,14,blue,90,True,thups
12,2472,truth_conditions,bare,shells,generic,15,green,70,True,moxes
12,2151,truth_conditions,danger,shells,generic,16,purple,90,True,javs
12,3600,truth_conditions,danger,fur,generic,17,yellow,10,False,ollers
12,4087,truth_conditions,distinct,stripes,generic,18,gold,10,True,daiths
12,3768,truth_conditions,danger,spots,generic,19,copper,10,False,glippets
12,2285,truth_conditions,bare,stripes,generic,20,copper,10,False,mooks
12,2387,truth_conditions,bare,ears,generic,21,blue,30,True,cheebas
12,1407,truth_conditions,bare,tails,generic,22,purple,30,True,taifels
12,2250,truth_conditions,distinct,teeth,generic,23,green,30,True,zoovs
12,3613,truth_conditions,danger,ears,generic,24,orange,30,True,kazzes
12,2382,truth_conditions,danger,teeth,generic,25,pink,70,True,krivels
12,2266,truth_conditions,distinct,feathers,generic,26,red,70,True,noobs
12,2127,truth_conditions,distinct,shells,generic,27,orange,30,True,luzaks
12,1689,truth_conditions,distinct,legs,generic,28,pink,50,True,feps
12,1856,truth_conditions,danger,feathers,generic,29,purple,50,True,lorches
13,11740,truth_conditions,bare,tails,generic,0,orange,30,True,zorbs
13,12766,truth_conditions,distinct,ears,generic,1,orange,70,True,kazzes
13,11591,truth_conditions,distinct,fur,generic,2,copper,30,True,kweps
13,10569,truth_conditions,danger,stripes,generic,3,silver,70,True,frams
13,5805,truth_conditions,distinct,teeth,generic,4,pink,90,True,krivels
13,6850,truth_conditions,danger,legs,generic,5,pink,30,True,feps
13,5543,truth_conditions,danger,tails,generic,6,green,50,True,trufts
13,6839,truth_conditions,bare,ears,generic,7,pink,50,True,elleps
13,6501,truth_conditions,distinct,feathers,generic,8,gold,30,True,plovs
13,4753,truth_conditions,distinct,spots,generic,9,gold,90,True,stups
13,4239,truth_conditions,distinct,legs,generic,10,yellow,50,True,ludinos
13,6607,truth_conditions,danger,fur,generic,11,yellow,10,True,ollers
13,5448,truth_conditions,distinct,tails,generic,12,purple,10,True,taifels
13,3613,truth_conditions,bare,teeth,generic,13,green,70,True,zoovs
13,4730,truth_conditions,distinct,stripes,generic,14,copper,10,True,mooks
13,3143,truth_conditions,bare,spots,generic,15,copper,90,True,glippets
13,3279,truth_conditions,danger,feathers,generic,16,red,30,True,noobs
13,5880,truth_conditions,distinct,shells,generic,17,orange,70,True,luzaks
13,3544,truth_conditions,bare,stripes,generic,18,gold,10,True,daiths
13,2591,truth_conditions,bare,feathers,generic,19,purple,70,True,lorches
13,4304,truth_conditions,distinct,scales,generic,20,yellow,50,True,dorbs
13,3031,truth_conditions,danger,teeth,generic,21,blue,90,True,thups
13,4183,truth_conditions,danger,spots,generic,22,red,90,True,sapers
13,3223,truth_conditions,danger,scales,generic,23,red,50,True,blins
13,2664,truth_conditions,bare,shells,generic,24,green,90,True,moxes
13,3751,truth_conditions,bare,legs,generic,25,silver,10,True,ackles
13,3616,truth_conditions,bare,fur,generic,26,silver,50,True,morseths
13,2184,truth_conditions,bare,scales,generic,27,blue,30,True,reesles
13,2880,truth_conditions,danger,shells,generic,28,purple,70,True,javs
13,2720,truth_conditions,danger,ears,generic,29,blue,10,True,cheebas
14,6155,truth_conditions,bare,spots,generic,0,red,50,True,sapers
14,4211,truth_conditions,danger,tails,generic,1,green,70,True,trufts
14,1857,truth_conditions,distinct,tails,generic,2,purple,70,True,taifels
14,2224,truth_conditions,distinct,fur,generic,3,silver,50,True,morseths
14,1556,truth_conditions,bare,tails,generic,4,orange,90,True,zorbs
14,1696,truth_conditions,distinct,feathers,generic,5,purple,90,True,lorches
14,1693,truth_conditions,distinct,teeth,generic,6,blue,10,False,thups
14,1226,truth_conditions,distinct,shells,generic,7,green,90,True,moxes
14,1222,truth_conditions,distinct,scales,generic,8,yellow,30,True,dorbs
14,1740,truth_conditions,bare,shells,generic,9,purple,10,False,javs
14,1498,truth_conditions,bare,ears,generic,10,pink,50,True,elleps
14,2734,truth_conditions,danger,spots,generic,11,copper,50,True,glippets
14,2305,truth_conditions,bare,fur,generic,12,yellow,30,True,ollers
14,2010,truth_conditions,bare,scales,generic,13,red,30,True,blins
14,2237,truth_conditions,danger,stripes,generic,14,silver,90,True,frams
14,1697,truth_conditions,bare,feathers,generic,15,gold,70,True,plovs
14,2331,truth_conditions,danger,legs,generic,16,yellow,30,True,ludinos
14,5430,truth_conditions,distinct,spots,generic,17,gold,70,True,stups
14,3013,truth_conditions,danger,scales,generic,18,blue,30,True,reesles
14,1757,truth_conditions,distinct,legs,generic,19,pink,50,True,feps
14,1242,truth_conditions,distinct,stripes,generic,20,copper,30,True,mooks
14,1476,truth_conditions,bare,legs,generic,21,silver,90,True,ackles
14,1476,truth_conditions,danger,teeth,generic,22,green,90,True,zoovs
14,1414,truth_conditions,danger,fur,generic,23,copper,70,True,kweps
14,1462,truth_conditions,bare,teeth,generic,24,pink,70,True,krivels
14,2078,truth_conditions,danger,ears,generic,25,orange,10,False,kazzes
14,1806,truth_conditions,danger,feathers,generic,26,red,10,False,noobs
14,1948,truth_conditions,bare,stripes,generic,27,gold,10,False,daiths
14,1603,truth_conditions,danger,shells,generic,28,orange,50,True,luzaks
14,3672,truth_conditions,distinct,ears,generic,29,blue,10,False,cheebas
15,3332,truth_conditions,bare,legs,generic,0,pink,50,False,feps
15,7714,truth_conditions,distinct,ears,generic,1,blue,90,True,cheebas
15,2005,truth_conditions,danger,teeth,generic,2,pink,30,False,krivels
15,3132,truth_conditions,danger,stripes,generic,3,copper,70,False,mooks
15,2012,truth_conditions,danger,tails,generic,4,orange,10,False,zorbs
15,2126,truth_conditions,danger,ears,generic,5,orange,30,False,kazzes
15,1891,truth_conditions,bare,shells,generic,6,purple,10,False,javs
15,1041,truth_conditions,bare,spots,generic,7,gold,30,False,stups
15,1861,truth_conditions,distinct,scales,generic,8,yellow,50,False,dorbs
15,2634,truth_conditions,bare,stripes,generic,9,gold,70,False,daiths
15,2312,truth_conditions,bare,feathers,generic,10,purple,10,False,lorches
15,1608,truth_conditions,danger,fur,generic,11,yellow,50,False,ollers
15,1503,truth_conditions,bare,ears,generic,12,pink,70,False,elleps
15,3520,truth_conditions,bare,tails,generic,13,purple,90,True,taifels
15,1154,truth_conditions,bare,scales,generic,14,blue,30,False,reesles
15,1599,truth_conditions,distinct,fur,generic,15,silver,70,False,morseths
15,2756,truth_conditions,danger,shells,generic,16,green,90,True,moxes
15,1632,truth_conditions,danger,scales,generic,17,red,70,False,blins
15,912,truth_conditions,distinct,stripes,generic,18,silver,70,False,frams
15,1118,truth_conditions,bare,teeth,generic,19,green,50,False,zoovs
15,1248,truth_conditions,distinct,tails,generic,20,green,30,False,trufts
15,960,truth_conditions,distinct,legs,generic,21,yellow,30,False,ludinos
15,887,truth_conditions,distinct,spots,generic,22,copper,10,False,glippets
15,2895,truth_conditions,distinct,feathers,generic,23,gold,90,True,plovs
15,2018,truth_conditions,distinct,shells,generic,24,orange,50,False,luzaks
15,3208,truth_conditions,bare,fur,generic,25,copper,90,True,kweps
15,2798,truth_conditions,danger,feathers,generic,26,red,50,False,noobs
15,2286,truth_conditions,distinct,teeth,generic,27,blue,10,False,thups
15,2006,truth_conditions,danger,legs,generic,28,silver,10,False,ackles
15,2611,truth_conditions,danger,spots,generic,29,red,90,True,sapers
16,12640,truth_conditions,distinct,legs,generic,0,silver,70,True,ackles
16,11819,truth_conditions,danger,ears,generic,1,pink,30,False,elleps
16,9149,truth_conditions,distinct,tails,generic,2,purple,50,True,taifels
16,8217,truth_conditions,danger,legs,generic,3,yellow,50,True,ludinos
16,8699,truth_conditions,danger,spots,generic,4,red,70,True,sapers
16,6399,truth_conditions,distinct,stripes,generic,5,gold,70,True,daiths
16,5418,truth_conditions,distinct,feathers,generic,6,gold,30,True,plovs
16,4069,truth_conditions,distinct,ears,generic,7,blue,10,True,cheebas
16,2839,truth_conditions,bare,teeth,generic,8,blue,90,True,thups
16,10635,truth_conditions,distinct,teeth,generic,9,green,90,False,zoovs
16,3065,truth_conditions,bare,ears,generic,10,orange,50,True,kazzes
16,8684,truth_conditions,bare,feathers,generic,11,red,30,True,noobs
16,10515,truth_conditions,danger,fur,generic,12,yellow,50,True,ollers
16,3192,truth_conditions,bare,tails,generic,13,green,50,True,trufts
16,7675,truth_conditions,distinct,scales,generic,14,blue,10,True,reesles
16,2375,truth_conditions,bare,legs,generic,15,pink,30,True,feps
16,5022,truth_conditions,bare,spots,generic,16,gold,90,True,stups
16,2450,truth_conditions,bare,scales,generic,17,yellow,10,True,dorbs
16,2131,truth_conditions,danger,teeth,generic,18,pink,90,True,krivels
16,2600,truth_conditions,danger,feathers,generic,19,purple,10,True,lorches
16,2415,truth_conditions,distinct,spots,generic,20,copper,30,True,glippets
16,2315,truth_conditions,bare,stripes,generic,21,silver,70,True,frams
16,2146,truth_conditions,bare,shells,generic,22,green,70,True,moxes
16,2939,truth_conditions,bare,fur,generic,23,silver,10,True,morseths
16,3597,truth_conditions,danger,scales,generic,24,red,30,True,blins
16,2712,truth_conditions,distinct,shells,generic,25,orange,90,True,luzaks
16,2431,truth_conditions,danger,tails,generic,26,orange,70,True,zorbs
16,2038,truth_conditions,danger,shells,generic,27,purple,10,True,javs
16,1865,truth_conditions,danger,stripes,generic,28,copper,90,True,mooks
16,2418,truth_conditions,distinct,fur,generic,29,copper,50,True,kweps
17,55105,truth_conditions,distinct,legs,generic,0,yellow,30,True,ludinos
17,10040,truth_conditions,bare,fur,generic,1,silver,30,False,morseths
17,16299,truth_conditions,distinct,scales,generic,2,red,10,True,blins
17,38652,truth_conditions,bare,stripes,generic,3,copper,10,True,mooks
17,4852,truth_conditions,bare,spots,generic,4,gold,70,True,stups
17,24808,truth_conditions,distinct,stripes,generic,5,silver,50,True,frams
17,13485,truth_conditions,danger,legs,generic,6,silver,30,True,ackles
17,10795,truth_conditions,danger,ears,generic,7,pink,90,True,elleps
17,17197,truth_conditions,danger,spots,generic,8,red,30,True,sapers
17,4269,truth_conditions,bare,teeth,generic,9,green,10,False,zoovs
17,44875,truth_conditions,distinct,spots,generic,10,copper,90,True,glippets
17,9637,truth_conditions,distinct,ears,generic,11,orange,90,True,kazzes
17,16413,truth_conditions,danger,stripes,generic,12,gold,90,True,daiths
17,3553,truth_conditions,bare,feathers,generic,13,purple,30,False,lorches
17,4395,truth_conditions,bare,ears,generic,14,blue,90,True,cheebas
17,4828,truth_conditions,bare,scales,generic,15,blue,50,True,reesles
17,7507,truth_conditions,bare,shells,generic,16,green,50,True,moxes
17,10365,truth_conditions,danger,scales,generic,17,yellow,70,True,dorbs
17,7651,truth_conditions,distinct,feathers,generic,18,red,70,True,noobs
17,9454,truth_conditions,danger,shells,generic,19,purple,50,True,javs
17,6719,truth_conditions,danger,tails,generic,20,orange,10,True,zorbs
17,9562,truth_conditions,distinct,tails,generic,21,purple,70,True,taifels
17,34337,truth_conditions,distinct,fur,generic,22,yellow,10,True,ollers
17,9839,truth_conditions,danger,feathers,generic,23,gold,10,True,plovs
17,4598,truth_conditions,bare,tails,generic,24,green,70,True,trufts
17,5553,truth_conditions,bare,legs,generic,25,pink,90,True,feps
17,12066,truth_conditions,danger,fur,generic,26,copper,70,True,kweps
17,13190,truth_conditions,danger,teeth,generic,27,pink,50,True,krivels
17,10259,truth_conditions,distinct,shells,generic,28,orange,30,True,luzaks
17,9892,truth_conditions,distinct,teeth,generic,29,blue,50,True,thups
18,18365,truth_conditions,danger,spots,generic,0,copper,30,True,glippets
18,14248,truth_conditions,distinct,fur,generic,1,yellow,50,True,ollers
18,8168,truth_conditions,danger,feathers,generic,2,gold,10,True,plovs
18,5648,truth_conditions,danger,shells,generic,3,orange,70,True,luzaks
18,7801,truth_conditions,danger,teeth,generic,4,blue,50,True,thups
18,4583,truth_conditions,distinct,legs,generic,5,pink,10,True,feps
18,3266,truth_conditions,bare,fur,generic,6,silver,90,True,morseths
18,4685,truth_conditions,distinct,tails,generic,7,green,30,True,trufts
18,5199,truth_conditions,bare,teeth,generic,8,green,70,True,zoovs
18,4608,truth_conditions,distinct,spots,generic,9,gold,30,True,stups
18,6827,truth_conditions,danger,fur,generic,10,copper,70,True,kweps
18,3752,truth_conditions,danger,tails,generic,11,purple,90,True,taifels
18,3915,truth_conditions,distinct,feathers,generic,12,red,90,True,noobs
18,3531,truth_conditions,danger,ears,generic,13,pink,30,True,elleps
18,4952,truth_conditions,distinct,stripes,generic,14,gold,70,True,daiths
18,3749,truth_conditions,distinct,teeth,generic,15,pink,70,True,krivels
18,3500,truth_conditions,distinct,shells,generic,16,purple,10,True,javs
18,3050,truth_conditions,bare,ears,generic,17,orange,50,True,kazzes
18,4601,truth_conditions,danger,legs,generic,18,silver,50,True,ackles
18,6783,truth_conditions,danger,stripes,generic,19,silver,10,True,frams
18,2835,truth_conditions,bare,feathers,generic,20,purple,10,True,lorches
18,3298,truth_conditions,danger,scales,generic,21,yellow,90,True,dorbs
18,3082,truth_conditions,bare,spots,generic,22,red,30,True,sapers
18,4552,truth_conditions,distinct,ears,generic,23,blue,90,True,cheebas
18,3632,truth_conditions,bare,legs,generic,24,yellow,50,True,ludinos
18,3768,truth_conditions,bare,shells,generic,25,green,70,True,moxes
18,5467,truth_conditions,distinct,scales,generic,26,blue,50,True,reesles
18,2989,truth_conditions,bare,stripes,generic,27,copper,90,True,mooks
18,2559,truth_conditions,bare,scales,generic,28,red,10,True,blins
18,2349,truth_conditions,bare,tails,generic,29,orange,30,True,zorbs
19,8035,truth_conditions,distinct,spots,generic,0,gold,50,True,stups
19,9206,truth_conditions,distinct,fur,generic,1,copper,30,True,kweps
19,4052,truth_conditions,bare,stripes,generic,2,gold,50,True,daiths
19,4102,truth_conditions,bare,ears,generic,3,orange,30,False,kazzes
19,6691,truth_conditions,distinct,shells,generic,4,orange,70,True,luzaks
19,11631,truth_conditions,distinct,feathers,generic,5,purple,70,True,lorches
19,10885,truth_conditions,danger,ears,generic,6,blue,70,True,cheebas
19,4072,truth_conditions,bare,feathers,generic,7,gold,70,True,plovs
19,5017,truth_conditions,distinct,ears,generic,8,pink,10,False,elleps
19,4046,truth_conditions,danger,legs,generic,9,silver,90,True,ackles
19,3299,truth_conditions,danger,shells,generic,10,purple,10,False,javs
19,1789,truth_conditions,danger,fur,generic,11,silver,50,True,morseths
19,10413,truth_conditions,danger,tails,generic,12,green,70,True,trufts
19,2348,truth_conditions,bare,scales,generic,13,blue,50,True,reesles
19,3294,truth_conditions,distinct,stripes,generic,14,silver,30,False,frams
19,2044,truth_conditions,distinct,legs,generic,15,yellow,50,True,ludinos
19,2021,truth_conditions,danger,scales,generic,16,red,50,True,blins
19,1583,truth_conditions,bare,teeth,generic,17,pink,90,True,krivels
19,5238,truth_conditions,distinct,tails,generic,18,orange,10,False,zorbs
19,4094,truth_conditions,danger,teeth,generic,19,blue,90,True,thups
19,5714,truth_conditions,bare,shells,generic,20,green,10,False,moxes
19,2134,truth_conditions,bare,legs,generic,21,pink,70,True,feps
19,4709,truth_conditions,distinct,teeth,generic,22,green,90,True,zoovs
19,6628,truth_conditions,danger,feathers,generic,23,red,30,True,noobs
19,2359,truth_conditions,bare,spots,generic,24,copper,90,True,glippets
19,4041,truth_conditions,distinct,scales,generic,25,yellow,90,True,dorbs
19,4362,truth_conditions,danger,spots,generic,26,red,30,True,sapers
19,2455,truth_conditions,danger,stripes,generic,27,copper,10,False,mooks
19,4443,truth_conditions,bare,fur,generic,28,yellow,30,False,ollers
19,2883,truth_conditions,bare,tails,generic,29,purple,10,False,taifels
20,17712,truth_conditions,danger,spots,generic,0,red,70,False,sapers
20,21176,truth_conditions,danger,fur,generic,1,silver,50,False,morseths
20,15752,truth_conditions,danger,legs,generic,2,yellow,50,False,ludinos
20,11153,truth_conditions,danger,ears,generic,3,orange,70,False,kazzes
20,4187,truth_conditions,bare,fur,generic,4,copper,30,False,kweps
20,5922,truth_conditions,bare,stripes,generic,5,silver,50,False,frams
20,9256,truth_conditions,danger,stripes,generic,6,copper,30,False,mooks
20,8194,truth_conditions,danger,scales,generic,7,blue,10,False,reesles
20,9320,truth_conditions,distinct,stripes,generic,8,gold,70,True,daiths
20,4343,truth_conditions,bare,scales,generic,9,yellow,70,False,dorbs
20,7596,truth_conditions,distinct,fur,generic,10,yellow,10,False,ollers
20,4794,truth_conditions,bare,teeth,generic,11,blue,90,False,thups
20,8419,truth_conditions,danger,teeth,generic,12,pink,90,False,krivels
20,5670,truth_conditions,danger,shells,generic,13,orange,10,False,luzaks
20,3763,truth_conditions,bare,legs,generic,14,silver,50,False,ackles
20,3931,truth_conditions,bare,tails,generic,15,purple,10,False,taifels
20,7806,truth_conditions,danger,tails,generic,16,orange,90,True,zorbs
20,5918,truth_conditions,distinct,legs,generic,17,pink,10,False,feps
20,6750,truth_conditions,distinct,ears,generic,18,blue,50,False,cheebas
20,3220,truth_conditions,bare,feathers,generic,19,red,30,False,noobs
20,4228,truth_conditions,bare,shells,generic,20,purple,70,False,javs
20,7620,truth_conditions,distinct,tails,generic,21,green,30,False,trufts
20,5710,truth_conditions,distinct,teeth,generic,22,green,90,True,zoovs
20,5454,truth_conditions,bare,spots,generic,23,gold,10,False,stups
20,9855,truth_conditions,distinct,shells,generic,24,green,90,True,moxes
20,7783,truth_conditions,danger,feathers,generic,25,purple,30,False,lorches
20,3406,truth_conditions,bare,ears,generic,26,pink,90,True,elleps
20,6487,truth_conditions,distinct,scales,generic,27,red,70,False,blins
20,7898,truth_conditions,distinct,spots,generic,28,copper,50,False,glippets
20,6400,truth_conditions,distinct,feathers,generic,29,gold,30,False,plovs
21,26249,truth_conditions,distinct,fur,generic,0,copper,30,True,kweps
21,13218,truth_conditions,danger,legs,generic,1,yellow,10,True,ludinos
21,10812,truth_conditions,danger,feathers,generic,2,gold,90,True,plovs
21,13403,truth_conditions,distinct,scales,generic,3,yellow,90,True,dorbs
21,12299,truth_conditions,danger,shells,generic,4,purple,70,True,javs
21,9674,truth_conditions,bare,shells,generic,5,green,50,True,moxes
21,14994,truth_conditions,danger,stripes,generic,6,silver,30,True,frams
21,17483,truth_conditions,danger,spots,generic,7,red,50,True,sapers
21,7225,truth_conditions,danger,ears,generic,8,pink,50,True,elleps
21,6083,truth_conditions,distinct,shells,generic,9,orange,10,True,luzaks
21,4550,truth_conditions,distinct,stripes,generic,10,copper,70,True,mooks
21,7856,truth_conditions,danger,scales,generic,11,red,90,True,blins
21,7118,truth_conditions,bare,tails,generic,12,orange,30,True,zorbs
21,8987,truth_conditions,distinct,legs,generic,13,pink,50,True,feps
21,9222,truth_conditions,bare,ears,generic,14,blue,90,True,cheebas
21,8604,truth_conditions,bare,spots,generic,15,copper,70,True,glippets
21,13345,truth_conditions,danger,fur,generic,16,yellow,70,True,ollers
21,6997,truth_conditions,bare,fur,generic,17,silver,10,True,morseths
21,8607,truth_conditions,distinct,tails,generic,18,purple,90,True,taifels
21,5973,truth_conditions,bare,feathers,generic,19,purple,90,True,lorches
21,9934,truth_conditions,distinct,spots,generic,20,gold,50,True,stups
21,4760,truth_conditions,bare,teeth,generic,21,pink,30,True,krivels
21,6580,truth_conditions,bare,scales,generic,22,blue,10,True,reesles
21,8909,truth_conditions,danger,teeth,generic,23,green,30,True,zoovs
21,5563,truth_conditions,distinct,feathers,generic,24,red,10,True,noobs
21,9465,truth_conditions,distinct,teeth,generic,25,blue,70,True,thups
21,5939,truth_conditions,bare,legs,generic,26,silver,70,True,ackles
21,6692,truth_conditions,danger,tails,generic,27,green,10,True,trufts
21,5330,truth_conditions,distinct,ears,generic,28,orange,30,True,kazzes
21,4486,truth_conditions,bare,stripes,generic,29,gold,50,True,daiths
22,7806,truth_conditions,danger,teeth,generic,0,pink,10,True,krivels
22,9215,truth_conditions,bare,shells,generic,1,orange,10,False,luzaks
22,7660,truth_conditions,distinct,stripes,generic,2,silver,70,True,frams
22,5937,truth_conditions,distinct,scales,generic,3,red,90,True,blins
22,6211,truth_conditions,danger,fur,generic,4,yellow,70,True,ollers
22,4008,truth_conditions,danger,legs,generic,5,yellow,30,False,ludinos
22,5023,truth_conditions,distinct,spots,generic,6,red,10,False,sapers
22,3638,truth_conditions,bare,feathers,generic,7,gold,70,True,plovs
22,2979,truth_conditions,distinct,fur,generic,8,silver,70,True,morseths
22,3015,truth_conditions,bare,stripes,generic,9,gold,90,True,daiths
22,2908,truth_conditions,distinct,legs,generic,10,pink,50,True,feps
22,3229,truth_conditions,distinct,ears,generic,11,blue,50,True,cheebas
22,2803,truth_conditions,bare,teeth,generic,12,blue,90,True,thups
22,2036,truth_conditions,danger,feathers,generic,13,purple,30,False,lorches
22,1895,truth_conditions,danger,stripes,generic,14,copper,50,False,mooks
22,1671,truth_conditions,danger,scales,generic,15,blue,50,False,reesles
22,1577,truth_conditions,bare,scales,generic,16,yellow,30,False,dorbs
22,2295,truth_conditions,bare,fur,generic,17,copper,70,True,kweps
22,1765,truth_conditions,bare,spots,generic,18,gold,10,False,stups
22,3387,truth_conditions,danger,spots,generic,19,copper,10,False,glippets
22,1833,truth_conditions,danger,ears,generic,20,pink,90,True,elleps
22,1732,truth_conditions,danger,shells,generic,21,purple,70,True,javs
22,1863,truth_conditions,bare,ears,generic,22,orange,50,False,kazzes
22,1203,truth_conditions,bare,tails,generic,23,orange,30,False,zorbs
22,1501,truth_conditions,bare,legs,generic,24,silver,50,False,ackles
22,1850,truth_conditions,danger,tails,generic,25,purple,90,True,taifels
22,1387,truth_conditions,distinct,teeth,generic,26,green,10,False,zoovs
22,1947,truth_conditions,distinct,feathers,generic,27,red,90,True,noobs
22,1312,truth_conditions,distinct,tails,generic,28,green,30,False,trufts
22,1124,truth_conditions,distinct,shells,generic,29,green,30,False,moxes
23,22606,truth_conditions,distinct,shells,generic,0,orange,30,True,luzaks
23,9908,truth_conditions,danger,shells,generic,1,purple,70,True,javs
23,7838,truth_conditions,distinct,ears,generic,2,blue,90,True,cheebas
23,12399,truth_conditions,danger,ears,generic,3,pink,30,False,elleps
23,9394,truth_conditions,distinct,spots,generic,4,copper,30,True,glippets
23,8165,truth_conditions,danger,teeth,generic,5,green,50,True,zoovs
23,8815,truth_conditions,danger,legs,generic,6,pink,10,False,feps
23,7551,truth_conditions,bare,stripes,generic,7,copper,30,False,mooks
23,6463,truth_conditions,bare,scales,generic,8,red,10,False,blins
23,8265,truth_conditions,danger,feathers,generic,9,gold,30,True,plovs
23,6610,truth_conditions,distinct,fur,generic,10,silver,10,False,morseths
23,4593,truth_conditions,distinct,feathers,generic,11,purple,70,True,lorches
23,5360,truth_conditions,bare,tails,generic,12,orange,90,True,zorbs
23,11597,truth_conditions,danger,stripes,generic,13,silver,10,False,frams
23,9088,truth_conditions,danger,scales,generic,14,blue,90,True,reesles
23,5451,truth_conditions,distinct,scales,generic,15,yellow,50,True,dorbs
23,7748,truth_conditions,distinct,teeth,generic,16,pink,10,False,krivels
23,7543,truth_conditions,danger,tails,generic,17,green,50,True,trufts
23,3512,truth_conditions,bare,ears,generic,18,orange,90,True,kazzes
23,3231,truth_conditions,bare,legs,generic,19,silver,30,False,ackles
23,4406,truth_conditions,bare,spots,generic,20,red,50,True,sapers
23,4725,truth_conditions,distinct,stripes,generic,21,gold,90,True,daiths
23,6520,truth_conditions,danger,spots,generic,22,gold,70,True,stups
23,5116,truth_conditions,distinct,tails,generic,23,purple,50,True,taifels
23,2865,truth_conditions,bare,teeth,generic,24,blue,70,True,thups
23,4032,truth_conditions,bare,shells,generic,25,green,50,True,moxes
23,6264,truth_conditions,danger,fur,generic,26,yellow,90,True,ollers
23,4910,truth_conditions,distinct,legs,generic,27,yellow,70,True,ludinos
23,3303,truth_conditions,bare,fur,generic,28,copper,10,False,kweps
23,2334,truth_conditions,bare,feathers,generic,29,red,70,True,noobs
24,4801,truth_conditions,bare,scales,generic,0,blue,10,False,reesles
24,5666,truth_conditions,distinct,ears,generic,1,pink,50,True,elleps
24,5099,truth_conditions,bare,feathers,generic,2,gold,10,False,plovs
24,6862,truth_conditions,distinct,spots,generic,3,red,70,True,sapers
24,5809,truth_conditions,danger,teeth,generic,4,blue,50,True,thups
24,8482,truth_conditions,danger,legs,generic,5,yellow,30,False,ludinos
24,9335,truth_conditions,distinct,stripes,generic,6,silver,90,True,frams
24,3821,truth_conditions,distinct,teeth,generic,7,pink,30,True,krivels
24,5426,truth_conditions,bare,ears,generic,8,blue,50,True,cheebas
24,5993,truth_conditions,danger,stripes,generic,9,copper,70,True,mooks
24,5100,truth_conditions,distinct,legs,generic,10,silver,30,True,ackles
24,2558,truth_conditions,bare,spots,generic,11,gold,70,True,stups
24,2165,truth_conditions,bare,stripes,generic,12,gold,70,True,daiths
24,3994,truth_conditions,danger,spots,generic,13,copper,50,True,glippets
24,3471,truth_conditions,distinct,fur,generic,14,silver,50,True,morseths
24,4227,truth_conditions,danger,shells,generic,15,green,70,True,moxes
24,5878,truth_conditions,distinct,tails,generic,16,orange,10,True,zorbs
24,4863,truth_conditions,bare,shells,generic,17,purple,30,False,javs
24,3359,truth_conditions,danger,tails,generic,18,purple,90,True,taifels
24,4838,truth_conditions,bare,teeth,generic,19,green,50,True,zoovs
24,2617,truth_conditions,danger,ears,generic,20,orange,10,False,kazzes
24,1883,truth_conditions,bare,fur,generic,21,copper,30,False,kweps
24,3883,truth_conditions,distinct,scales,generic,22,red,70,True,blins
24,3337,truth_conditions,bare,legs,generic,23,pink,90,True,feps
24,6572,truth_conditions,distinct,feathers,generic,24,purple,90,True,lorches
24,2240,truth_conditions,danger,scales,generic,25,yellow,10,False,dorbs
24,2686,truth_conditions,danger,fur,generic,26,yellow,30,False,ollers
24,3927,truth_conditions,distinct,shells,generic,27,orange,10,True,luzaks
24,4243,truth_conditions,danger,feathers,generic,28,red,90,True,noobs
24,1915,truth_conditions,bare,tails,generic,29,green,90,True,trufts
25,21313,truth_conditions,bare,ears,generic,0,pink,90,True,elleps
25,4623,truth_conditions,bare,scales,generic,1,yellow,10,False,dorbs
25,14999,truth_conditions,distinct,scales,generic,2,blue,50,True,reesles
25,9809,truth_conditions,distinct,teeth,generic,3,green,10,False,zoovs
25,5223,truth_conditions,bare,stripes,generic,4,gold,70,True,daiths
25,13504,truth_conditions,danger,ears,generic,5,blue,50,True,cheebas
25,9889,truth_conditions,danger,tails,generic,6,orange,10,False,zorbs
25,10847,truth_conditions,distinct,ears,generic,7,orange,10,False,kazzes
25,5561,truth_conditions,bare,fur,generic,8,yellow,50,True,ollers
25,6711,truth_conditions,distinct,legs,generic,9,yellow,90,True,ludinos
25,3296,truth_conditions,bare,feathers,generic,10,purple,50,True,lorches
25,2952,truth_conditions,bare,legs,generic,11,pink,30,False,feps
25,5464,truth_conditions,distinct,feathers,generic,12,red,90,True,noobs
25,5184,truth_conditions,danger,feathers,generic,13,gold,50,True,plovs
25,4640,truth_conditions,distinct,tails,generic,14,purple,30,False,taifels
25,6528,truth_conditions,bare,shells,generic,15,orange,70,True,luzaks
25,3512,truth_conditions,danger,shells,generic,16,purple,70,True,javs
25,2704,truth_conditions,bare,teeth,generic,17,blue,90,True,thups
25,3656,truth_conditions,distinct,spots,generic,18,copper,70,True,glippets
25,5071,truth_conditions,danger,stripes,generic,19,copper,30,False,mooks
25,3097,truth_conditions,distinct,shells,generic,20,green,70,True,moxes
25,6040,truth_conditions,distinct,stripes,generic,21,silver,30,False,frams
25,3352,truth_conditions,distinct,fur,generic,22,copper,50,True,kweps
25,2887,truth_conditions,danger,legs,generic,23,silver,70,True,ackles
25,2112,truth_conditions,danger,scales,generic,24,red,30,False,blins
25,2032,truth_conditions,danger,spots,generic,25,red,10,False,sapers
25,3233,truth_conditions,bare,spots,generic,26,gold,30,False,stups
25,3084,truth_conditions,bare,tails,generic,27,green,10,False,trufts
25,2819,truth_conditions,danger,fur,generic,28,silver,90,True,morseths
25,4815,truth_conditions,danger,teeth,generic,29,pink,90,True,krivels
26,28431,truth_conditions,danger,ears,generic,0,blue,10,False,cheebas
26,6106,truth_conditions,bare,feathers,generic,1,gold,90,True,plovs
26,10119,truth_conditions,danger,stripes,generic,2,copper,50,True,mooks
26,9303,truth_conditions,danger,spots,generic,3,red,30,False,sapers
26,5491,truth_conditions,bare,fur,generic,4,silver,90,True,morseths
26,2877,truth_conditions,bare,shells,generic,5,orange,10,False,luzaks
26,4206,truth_conditions,distinct,feathers,generic,6,red,70,True,noobs
26,5160,truth_conditions,danger,legs,generic,7,pink,90,True,feps
26,4153,truth_conditions,distinct,tails,generic,8,purple,30,False,taifels
26,2404,truth_conditions,bare,spots,generic,9,gold,30,False,stups
26,4949,truth_conditions,danger,scales,generic,10,red,30,False,blins
26,4933,truth_conditions,distinct,fur,generic,11,yellow,90,True,ollers
26,2692,truth_conditions,distinct,ears,generic,12,pink,50,True,elleps
26,3403,truth_conditions,bare,ears,generic,13,orange,10,False,kazzes
26,3620,truth_conditions,danger,feathers,generic,14,purple,50,True,lorches
26,4550,truth_conditions,bare,tails,generic,15,green,70,True,trufts
26,3003,truth_conditions,bare,stripes,generic,16,gold,30,False,daiths
26,2429,truth_conditions,bare,scales,generic,17,blue,70,True,reesles
26,2595,truth_conditions,distinct,scales,generic,18,yellow,50,True,dorbs
26,2310,truth_conditions,distinct,teeth,generic,19,green,10,False,zoovs
26,2569,truth_conditions,bare,teeth,generic,20,pink,50,True,krivels
26,2085,truth_conditions,danger,shells,generic,21,purple,10,False,javs
26,1648,truth_conditions,danger,tails,generic,22,orange,70,True,zorbs
26,5267,truth_conditions,distinct,stripes,generic,23,silver,10,False,frams
26,3351,truth_conditions,danger,teeth,generic,24,blue,70,True,thups
26,2832,truth_conditions,distinct,legs,generic,25,yellow,30,False,ludinos
26,2355,truth_conditions,distinct,spots,generic,26,copper,90,True,glippets
26,2532,truth_conditions,distinct,shells,generic,27,green,70,True,moxes
26,2741,truth_conditions,bare,legs,generic,28,silver,50,True,ackles
26,3219,truth_conditions,danger,fur,generic,29,copper,90,True,kweps
27,29383,truth_conditions,distinct,ears,generic,0,blue,70,False,cheebas
27,10487,truth_conditions,danger,feathers,generic,1,red,10,False,noobs
27,32106,truth_conditions,bare,teeth,generic,2,blue,10,False,thups
27,11166,truth_conditions,distinct,fur,generic,3,yellow,70,False,ollers
27,20969,truth_conditions,distinct,tails,generic,4,orange,30,False,zorbs
27,10402,truth_conditions,danger,spots,generic,5,red,90,False,sapers
27,62997,truth_conditions,danger,legs,generic,6,yellow,70,False,ludinos
27,8384,truth_conditions,bare,ears,generic,7,orange,30,False,kazzes
27,6904,truth_conditions,danger,stripes,generic,8,copper,30,False,mooks
27,7382,truth_conditions,bare,fur,generic,9,silver,30,False,morseths
27,10880,truth_conditions,distinct,feathers,generic,10,purple,10,False,lorches
27,8398,truth_conditions,bare,shells,generic,11,orange,10,False,luzaks
27,9325,truth_conditions,danger,tails,generic,12,purple,90,False,taifels
27,7111,truth_conditions,distinct,spots,generic,13,gold,50,False,stups
27,23253,truth_conditions,bare,tails,generic,14,green,90,False,trufts
27,6912,truth_conditions,bare,spots,generic,15,copper,50,False,glippets
27,8203,truth_conditions,danger,scales,generic,16,blue,50,False,reesles
27,5737,truth_conditions,bare,scales,generic,17,red,70,False,blins
27,12593,truth_conditions,danger,teeth,generic,18,green,10,False,zoovs
27,6278,truth_conditions,danger,shells,generic,19,purple,70,False,javs
27,7625,truth_conditions,distinct,legs,generic,20,silver,30,False,ackles
27,13235,truth_conditions,distinct,stripes,generic,21,silver,50,False,frams
27,12015,truth_conditions,danger,fur,generic,22,copper,50,False,kweps
27,4940,truth_conditions,bare,feathers,generic,23,gold,70,False,plovs
27,4458,truth_conditions,distinct,teeth,generic,24,pink,90,False,krivels
27,5630,truth_conditions,bare,stripes,generic,25,gold,90,False,daiths
27,5220,truth_conditions,bare,legs,generic,26,pink,50,False,feps
27,4097,truth_conditions,distinct,shells,generic,27,green,90,False,moxes
27,9331,truth_conditions,distinct,scales,generic,28,yellow,10,False,dorbs
27,6403,truth_conditions,danger,ears,generic,29,pink,30,False,elleps
28,9340,truth_conditions,bare,legs,generic,0,yellow,70,True,ludinos
28,24337,truth_conditions,distinct,spots,generic,1,red,70,False,sapers
28,9147,truth_conditions,bare,ears,generic,2,pink,10,False,elleps
28,18400,truth_conditions,danger,scales,generic,3,yellow,90,False,dorbs
28,6630,truth_conditions,bare,stripes,generic,4,silver,30,False,frams
28,8836,truth_conditions,bare,shells,generic,5,orange,90,False,luzaks
28,8429,truth_conditions,bare,tails,generic,6,orange,50,False,zorbs
28,6168,truth_conditions,bare,feathers,generic,7,red,70,False,noobs
28,10698,truth_conditions,distinct,ears,generic,8,blue,90,False,cheebas
28,6115,truth_conditions,bare,scales,generic,9,blue,50,False,reesles
28,16150,truth_conditions,danger,fur,generic,10,silver,30,False,morseths
28,10849,truth_conditions,danger,stripes,generic,11,gold,70,False,daiths
28,3600,truth_conditions,danger,feathers,generic,12,purple,90,True,lorches
28,5281,truth_conditions,danger,tails,generic,13,green,50,False,trufts
28,6399,truth_conditions,distinct,fur,generic,14,yellow,50,False,ollers
28,13418,truth_conditions,danger,spots,generic,15,gold,10,False,stups
28,4450,truth_conditions,distinct,legs,generic,16,pink,90,True,feps
28,6031,truth_conditions,distinct,stripes,generic,17,copper,70,True,mooks
28,3633,truth_conditions,distinct,scales,generic,18,red,30,False,blins
28,3066,truth_conditions,danger,teeth,generic,19,green,10,True,zoovs
28,3464,truth_conditions,danger,shells,generic,20,purple,30,False,javs
28,17004,truth_conditions,distinct,tails,generic,21,purple,10,False,taifels
28,4347,truth_conditions,danger,legs,generic,22,silver,50,False,ackles
28,4733,truth_conditions,distinct,feathers,generic,23,gold,30,False,plovs
28,11545,truth_conditions,bare,fur,generic,24,copper,90,True,kweps
28,4721,truth_conditions,distinct,teeth,generic,25,blue,50,True,thups
28,4916,truth_conditions,bare,teeth,generic,26,pink,30,False,krivels
28,3766,truth_conditions,danger,ears,generic,27,orange,70,False,kazzes
28,2934,truth_conditions,bare,spots,generic,28,copper,10,False,glippets
28,2465,truth_conditions,distinct,shells,generic,29,green,10,False,moxes
29,12111,truth_conditions,distinct,scales,generic,0,yellow,70,True,dorbs
29,11758,truth_conditions,danger,stripes,generic,1,silver,30,True,frams
29,15202,truth_conditions,danger,feathers,generic,2,gold,70,True,plovs
29,9444,truth_conditions,danger,scales,generic,3,red,70,True,blins
29,11921,truth_conditions,distinct,fur,generic,4,silver,30,True,morseths
29,22894,truth_conditions,danger,shells,generic,5,green,10,True,moxes
29,7577,truth_conditions,distinct,legs,generic,6,silver,30,True,ackles
29,6763,truth_conditions,distinct,tails,generic,7,purple,70,True,taifels
29,6082,truth_conditions,bare,tails,generic,8,orange,50,True,zorbs
29,7712,truth_conditions,distinct,spots,generic,9,copper,10,True,glippets
29,4044,truth_conditions,bare,ears,generic,10,pink,30,True,elleps
29,3426,truth_conditions,bare,legs,generic,11,yellow,70,True,ludinos
29,11020,truth_conditions,distinct,stripes,generic,12,copper,90,True,mooks
29,11317,truth_conditions,danger,ears,generic,13,orange,50,True,kazzes
29,7967,truth_conditions,danger,legs,generic,14,pink,50,True,feps
29,9319,truth_conditions,distinct,shells,generic,15,orange,50,True,luzaks
29,4710,truth_conditions,bare,teeth,generic,16,pink,90,True,krivels
29,10301,truth_conditions,bare,spots,generic,17,red,50,True,sapers
29,7443,truth_conditions,danger,teeth,generic,18,blue,10,False,thups
29,6578,truth_conditions,bare,stripes,generic,19,gold,30,True,daiths
29,4715,truth_conditions,bare,feathers,generic,20,red,90,True,noobs
29,8826,truth_conditions,danger,spots,generic,21,gold,90,True,stups
29,8082,truth_conditions,bare,scales,generic,22,blue,10,True,reesles
29,3179,truth_conditions,bare,shells,generic,23,purple,70,True,javs
29,6715,truth_conditions,distinct,teeth,generic,24,green,50,True,zoovs
29,6843,truth_conditions,danger,tails,generic,25,green,90,True,trufts
29,7062,truth_conditions,distinct,ears,generic,26,blue,10,True,cheebas
29,3828,truth_conditions,bare,fur,generic,27,copper,10,True,kweps
29,3567,truth_conditions,distinct,feathers,generic,28,purple,90,True,lorches
29,6769,truth_conditions,danger,fur,generic,29,yellow,30,True,ollers
30,11019,truth_conditions,danger,ears,generic,0,pink,10,False,elleps
30,10743,truth_conditions,distinct,fur,generic,1,copper,30,False,kweps
30,4493,truth_conditions,bare,spots,generic,2,gold,70,True,stups
30,8318,truth_conditions,bare,shells,generic,3,orange,50,False,luzaks
30,10319,truth_conditions,distinct,feathers,generic,4,purple,10,False,lorches
30,16173,truth_conditions,bare,tails,generic,5,orange,30,False,zorbs
30,5882,truth_conditions,danger,legs,generic,6,silver,30,False,ackles
30,3109,truth_conditions,bare,teeth,generic,7,blue,10,False,thups
30,6760,truth_conditions,danger,stripes,generic,8,silver,90,True,frams
30,3167,truth_conditions,distinct,teeth,generic,9,pink,10,False,krivels
30,5639,truth_conditions,danger,shells,generic,10,purple,70,True,javs
30,7934,truth_conditions,distinct,spots,generic,11,red,50,True,sapers
30,2933,truth_conditions,bare,scales,generic,12,blue,10,False,reesles
30,5933,truth_conditions,bare,feathers,generic,13,gold,50,False,plovs
30,4080,truth_conditions,distinct,ears,generic,14,orange,90,True,kazzes
30,3878,truth_conditions,distinct,shells,generic,15,green,90,True,moxes
30,5319,truth_conditions,danger,fur,generic,16,silver,70,True,morseths
30,11049,truth_conditions,danger,teeth,generic,17,green,50,False,zoovs
30,5211,truth_conditions,danger,feathers,generic,18,red,90,True,noobs
30,6654,truth_conditions,distinct,stripes,generic,19,gold,30,False,daiths
30,3375,truth_conditions,bare,legs,generic,20,pink,90,True,feps
30,7243,truth_conditions,danger,tails,generic,21,green,50,True,trufts
30,4516,truth_conditions,distinct,legs,generic,22,yellow,50,True,ludinos
30,6268,truth_conditions,distinct,scales,generic,23,yellow,70,True,dorbs
30,6848,truth_conditions,danger,spots,generic,24,copper,30,False,glippets
30,4336,truth_conditions,distinct,tails,generic,25,purple,70,True,taifels
30,10868,truth_conditions,danger,scales,generic,26,red,10,False,blins
30,4604,truth_conditions,bare,fur,generic,27,yellow,30,True,ollers
30,2956,truth_conditions,bare,ears,generic,28,blue,70,True,cheebas
30,3566,truth_conditions,bare,stripes,generic,29,copper,90,True,mooks
31,9255,truth_conditions,distinct,scales,generic,0,red,10,True,blins
31,8866,truth_conditions,bare,fur,generic,1,copper,10,True,kweps
31,4082,truth_conditions,bare,teeth,generic,2,pink,70,True,krivels
31,4179,truth_conditions,bare,legs,generic,3,yellow,10,True,ludinos
31,7985,truth_conditions,distinct,fur,generic,4,yellow,10,True,ollers
31,4674,truth_conditions,distinct,spots,generic,5,gold,90,True,stups
31,4651,truth_conditions,danger,legs,generic,6,pink,70,True,feps
31,4698,truth_conditions,distinct,feathers,generic,7,purple,50,True,lorches
31,3203,truth_conditions,bare,scales,generic,8,blue,30,True,reesles
31,3897,truth_conditions,danger,scales,generic,9,yellow,50,True,dorbs
31,2840,truth_conditions,bare,feathers,generic,10,gold,50,True,plovs
31,6044,truth_conditions,danger,ears,generic,11,blue,30,True,cheebas
31,3152,truth_conditions,bare,ears,generic,12,pink,50,True,elleps
31,6387,truth_conditions,distinct,teeth,generic,13,blue,50,True,thups
31,4650,truth_conditions,danger,spots,generic,14,copper,30,True,glippets
31,5867,truth_conditions,distinct,ears,generic,15,orange,70,True,kazzes
31,4792,truth_conditions,danger,teeth,generic,16,green,10,True,zoovs
31,4698,truth_conditions,distinct,stripes,generic,17,gold,30,True,daiths
31,4221,truth_conditions,distinct,shells,generic,18,orange,90,True,luzaks
31,3268,truth_conditions,bare,stripes,generic,19,silver,90,True,frams
31,2943,truth_conditions,bare,tails,generic,20,purple,30,True,taifels
31,3473,truth_conditions,danger,tails,generic,21,orange,90,True,zorbs
31,2771,truth_conditions,bare,spots,generic,22,red,90,True,sapers
31,6000,truth_conditions,danger,shells,generic,23,green,10,True,moxes
31,5729,truth_conditions,danger,fur,generic,24,silver,50,True,morseths
31,5576,truth_conditions,danger,feathers,generic,25,red,70,True,noobs
31,16862,truth_conditions,bare,shells,generic,26,purple,70,True,javs
31,8868,truth_conditions,danger,stripes,generic,27,copper,90,True,mooks
31,4274,truth_conditions,distinct,legs,generic,28,silver,30,True,ackles
31,7367,truth_conditions,distinct,tails,generic,29,green,70,True,trufts
32,13062,truth_conditions,bare,teeth,generic,0,pink,50,True,krivels
32,9977,truth_conditions,distinct,spots,generic,1,copper,70,True,glippets
32,6778,truth_conditions,distinct,tails,generic,2,orange,90,True,zorbs
32,6390,truth_conditions,bare,stripes,generic,3,copper,50,True,mooks
32,2664,truth_conditions,bare,ears,generic,4,blue,30,False,cheebas
32,11439,truth_conditions,danger,ears,generic,5,pink,10,True,elleps
32,7305,truth_conditions,danger,feathers,generic,6,red,30,True,noobs
32,7008,truth_conditions,danger,scales,generic,7,blue,90,True,reesles
32,3746,truth_conditions,bare,spots,generic,8,red,10,False,sapers
32,15921,truth_conditions,danger,spots,generic,9,gold,50,True,stups
32,4845,truth_conditions,bare,scales,generic,10,yellow,30,False,dorbs
32,3534,truth_conditions,danger,shells,generic,11,purple,70,True,javs
32,3403,truth_conditions,bare,feathers,generic,12,gold,90,True,plovs
32,3267,truth_conditions,bare,legs,generic,13,silver,90,True,ackles
32,2413,truth_conditions,bare,shells,generic,14,orange,70,True,luzaks
32,8895,truth_conditions,distinct,ears,generic,15,orange,10,False,kazzes
32,10909,truth_conditions,danger,stripes,generic,16,silver,10,True,frams
32,4585,truth_conditions,bare,fur,generic,17,yellow,10,False,ollers
32,4224,truth_conditions,distinct,teeth,generic,18,blue,10,False,thups
32,3480,truth_conditions,distinct,legs,generic,19,pink,50,False,feps
32,2740,truth_conditions,danger,fur,generic,20,silver,70,True,morseths
32,3754,truth_conditions,distinct,shells,generic,21,green,90,True,moxes
32,2171,truth_conditions,danger,tails,generic,22,green,90,True,trufts
32,2986,truth_conditions,danger,legs,generic,23,yellow,30,True,ludinos
32,4123,truth_conditions,distinct,fur,generic,24,copper,30,False,kweps
32,4811,truth_conditions,distinct,scales,generic,25,red,50,True,blins
32,3260,truth_conditions,bare,tails,generic,26,purple,70,True,taifels
32,2979,truth_conditions,danger,teeth,generic,27,green,50,True,zoovs
32,3393,truth_conditions,distinct,stripes,generic,28,gold,30,False,daiths
32,1819,truth_conditions,distinct,feathers,generic,29,purple,70,True,lorches
33,10011,truth_conditions,distinct,stripes,generic,0,gold,90,False,daiths
33,3957,truth_conditions,distinct,fur,generic,1,silver,10,False,morseths
33,1639,truth_conditions,distinct,tails,generic,2,green,10,False,trufts
33,1821,truth_conditions,danger,spots,generic,3,red,50,False,sapers
33,2537,truth_conditions,bare,teeth,generic,4,blue,30,False,thups
33,2147,truth_conditions,danger,teeth,generic,5,pink,90,False,krivels
33,1400,truth_conditions,bare,legs,generic,6,pink,90,False,feps
33,1405,truth_conditions,danger,fur,generic,7,copper,70,False,kweps
33,1281,truth_conditions,bare,spots,generic,8,copper,50,False,glippets
33,1148,truth_conditions,distinct,ears,generic,9,orange,50,False,kazzes
33,1022,truth_conditions,distinct,legs,generic,10,yellow,30,False,ludinos
33,1031,truth_conditions,danger,stripes,generic,11,copper,30,False,mooks
33,1131,truth_conditions,danger,shells,generic,12,purple,10,False,javs
33,1024,truth_conditions,distinct,feathers,generic,13,purple,70,False,lorches
33,1046,truth_conditions,bare,feathers,generic,14,gold,50,False,plovs
33,900,truth_conditions,bare,tails,generic,15,orange,30,False,zorbs
33,1228,truth_conditions,distinct,teeth,generic,16,green,90,False,zoovs
33,1144,truth_conditions,bare,fur,generic,17,yellow,70,False,ollers
33,1040,truth_conditions,bare,shells,generic,18,orange,10,False,luzaks
33,1624,truth_conditions,distinct,spots,generic,19,gold,70,False,stups
33,1873,truth_conditions,danger,feathers,generic,20,red,50,False,noobs
33,1573,truth_conditions,bare,scales,generic,21,yellow,70,False,dorbs
33,984,truth_conditions,distinct,scales,generic,22,blue,30,False,reesles
33,1180,truth_conditions,distinct,shells,generic,23,green,50,False,moxes
33,1016,truth_conditions,bare,stripes,generic,24,silver,90,False,frams
33,1250,truth_conditions,danger,ears,generic,25,blue,70,False,cheebas
33,983,truth_conditions,danger,legs,generic,26,silver,10,False,ackles
33,1164,truth_conditions,danger,scales,generic,27,red,90,False,blins
33,1078,truth_conditions,danger,tails,generic,28,purple,30,False,taifels
33,1680,truth_conditions,bare,ears,generic,29,pink,10,False,elleps
34,11463,truth_conditions,danger,legs,generic,0,pink,90,False,feps
34,8126,truth_conditions,danger,shells,generic,1,purple,30,False,javs
34,5556,truth_conditions,bare,teeth,generic,2,blue,90,False,thups
34,6077,truth_conditions,distinct,tails,generic,3,orange,30,False,zorbs
34,4355,truth_conditions,bare,spots,generic,4,red,10,False,sapers
34,4749,truth_conditions,distinct,ears,generic,5,pink,10,False,elleps
34,3110,truth_conditions,bare,feathers,generic,6,gold,90,False,plovs
34,3172,truth_conditions,bare,shells,generic,7,green,70,False,moxes
34,6025,truth_conditions,danger,stripes,generic,8,gold,30,False,daiths
34,3954,truth_conditions,danger,fur,generic,9,yellow,10,False,ollers
34,2990,truth_conditions,distinct,fur,generic,10,copper,70,False,kweps
34,3118,truth_conditions,danger,tails,generic,11,purple,70,False,taifels
34,1925,truth_conditions,distinct,feathers,generic,12,red,90,False,noobs
34,2186,truth_conditions,distinct,spots,generic,13,gold,50,False,stups
34,2612,truth_conditions,danger,feathers,generic,14,purple,70,False,lorches
34,2423,truth_conditions,distinct,teeth,generic,15,green,10,False,zoovs
34,3234,truth_conditions,bare,fur,generic,16,silver,10,False,morseths
34,3137,truth_conditions,bare,stripes,generic,17,silver,70,False,frams
34,4922,truth_conditions,danger,spots,generic,18,copper,90,False,glippets
34,3331,truth_conditions,bare,tails,generic,19,green,50,False,trufts
34,2943,truth_conditions,danger,scales,generic,20,blue,50,False,reesles
34,1557,truth_conditions,distinct,legs,generic,21,yellow,90,False,ludinos
34,1304,truth_conditions,distinct,shells,generic,22,orange,50,False,luzaks
34,3017,truth_conditions,distinct,scales,generic,23,yellow,70,False,dorbs
34,2744,truth_conditions,danger,teeth,generic,24,pink,50,False,krivels
34,1976,truth_conditions,bare,legs,generic,25,silver,50,False,ackles
34,1997,truth_conditions,danger,ears,generic,26,orange,10,False,kazzes
34,1902,truth_conditions,bare,scales,generic,27,red,30,False,blins
34,2793,truth_conditions,bare,ears,generic,28,blue,30,False,cheebas
34,5400,truth_conditions,distinct,stripes,generic,29,copper,30,False,mooks
35,12625,truth_conditions,bare,fur,generic,0,silver,30,True,morseths
35,7383,truth_conditions,distinct,shells,generic,1,purple,30,True,javs
35,5126,truth_conditions,bare,ears,generic,2,blue,50,True,cheebas
35,4743,truth_conditions,bare,spots,generic,3,copper,90,True,glippets
35,9368,truth_conditions,danger,shells,generic,4,green,50,True,moxes
35,8967,truth_conditions,danger,fur,generic,5,copper,70,True,kweps
35,4679,truth_conditions,bare,tails,generic,6,green,70,True,trufts
35,8488,truth_conditions,distinct,scales,generic,7,blue,90,True,reesles
35,4896,truth_conditions,bare,shells,generic,8,orange,30,True,luzaks
35,12984,truth_conditions,danger,spots,generic,9,gold,90,True,stups
35,8855,truth_conditions,danger,feathers,generic,10,red,90,True,noobs
35,7303,truth_conditions,distinct,teeth,generic,11,green,10,False,zoovs
35,5424,truth_conditions,distinct,ears,generic,12,pink,90,True,elleps
35,5112,truth_conditions,danger,ears,generic,13,orange,50,True,kazzes
35,7464,truth_conditions,distinct,fur,generic,14,yellow,70,True,ollers
35,6608,truth_conditions,bare,scales,generic,15,red,50,True,blins
35,7416,truth_conditions,distinct,feathers,generic,16,gold,30,False,plovs
35,5080,truth_conditions,bare,teeth,generic,17,blue,90,True,thups
35,5601,truth_conditions,danger,scales,generic,18,yellow,10,True,dorbs
35,3615,truth_conditions,bare,legs,generic,19,silver,10,False,ackles
35,6896,truth_conditions,distinct,legs,generic,20,pink,10,True,feps
35,11736,truth_conditions,danger,teeth,generic,21,pink,30,False,krivels
35,4800,truth_conditions,bare,stripes,generic,22,silver,70,True,frams
35,3904,truth_conditions,bare,feathers,generic,23,purple,10,False,lorches
35,6752,truth_conditions,distinct,spots,generic,24,red,50,True,sapers
35,4704,truth_conditions,distinct,tails,generic,25,purple,70,True,taifels
35,5264,truth_conditions,danger,legs,generic,26,yellow,30,True,ludinos
35,6336,truth_conditions,danger,stripes,generic,27,gold,70,True,daiths
35,4536,truth_conditions,danger,tails,generic,28,orange,10,False,zorbs
35,17824,truth_conditions,distinct,stripes,generic,29,copper,50,True,mooks
36,9245,truth_conditions,bare,ears,generic,0,orange,70,False,kazzes
36,8422,truth_conditions,bare,scales,generic,1,red,30,False,blins
36,14919,truth_conditions,danger,teeth,generic,2,green,30,True,zoovs
36,4790,truth_conditions,bare,teeth,generic,3,pink,50,True,krivels
36,5532,truth_conditions,distinct,teeth,generic,4,blue,90,True,thups
36,2948,truth_conditions,bare,feathers,generic,5,purple,90,True,lorches
36,4080,truth_conditions,distinct,tails,generic,6,green,70,True,trufts
36,3520,truth_conditions,danger,shells,generic,7,orange,90,True,luzaks
36,3357,truth_conditions,bare,tails,generic,8,purple,10,False,taifels
36,2166,truth_conditions,bare,stripes,generic,9,silver,30,True,frams
36,3313,truth_conditions,distinct,feathers,generic,10,gold,10,False,plovs
36,2754,truth_conditions,distinct,fur,generic,11,silver,70,True,morseths
36,1815,truth_conditions,danger,scales,generic,12,yellow,30,False,dorbs
36,2680,truth_conditions,danger,feathers,generic,13,red,10,False,noobs
36,2706,truth_conditions,distinct,spots,generic,14,copper,30,False,glippets
36,3103,truth_conditions,bare,legs,generic,15,yellow,10,False,ludinos
36,2494,truth_conditions,danger,stripes,generic,16,copper,50,True,mooks
36,3779,truth_conditions,bare,fur,generic,17,copper,70,True,kweps
36,2588,truth_conditions,danger,tails,generic,18,orange,70,True,zorbs
36,1798,truth_conditions,bare,shells,generic,19,purple,90,True,javs
36,2092,truth_conditions,distinct,scales,generic,20,blue,50,False,reesles
36,1967,truth_conditions,danger,spots,generic,21,red,70,True,sapers
36,1548,truth_conditions,distinct,ears,generic,22,pink,90,True,elleps
36,3164,truth_conditions,distinct,stripes,generic,23,gold,10,False,daiths
36,1819,truth_conditions,danger,ears,generic,24,blue,90,True,cheebas
36,1806,truth_conditions,danger,fur,generic,25,yellow,10,False,ollers
36,2454,truth_conditions,bare,spots,generic,26,gold,50,False,stups
36,2487,truth_conditions,distinct,legs,generic,27,silver,30,False,ackles
36,2171,truth_conditions,distinct,shells,generic,28,green,50,True,moxes
36,2229,truth_conditions,danger,legs,generic,29,pink,50,False,feps
37,20876,truth_conditions,bare,legs,generic,0,yellow,90,True,ludinos
37,19882,truth_conditions,danger,feathers,generic,1,purple,30,True,lorches
37,14512,truth_conditions,distinct,ears,generic,2,pink,50,True,elleps
37,11775,truth_conditions,distinct,teeth,generic,3,blue,10,True,thups
37,9430,truth_conditions,danger,legs,generic,4,pink,10,True,feps
37,10307,truth_conditions,distinct,stripes,generic,5,gold,90,True,daiths
37,12046,truth_conditions,danger,stripes,generic,6,silver,70,True,frams
37,13616,truth_conditions,distinct,spots,generic,7,gold,30,True,stups
37,12669,truth_conditions,bare,spots,generic,8,red,10,True,sapers
37,10895,truth_conditions,bare,scales,generic,9,yellow,50,True,dorbs
37,11595,truth_conditions,distinct,fur,generic,10,silver,70,True,morseths
37,9609,truth_conditions,distinct,scales,generic,11,blue,50,True,reesles
37,17546,truth_conditions,danger,ears,generic,12,blue,90,True,cheebas
37,12819,truth_conditions,distinct,legs,generic,13,silver,30,True,ackles
37,13481,truth_conditions,danger,tails,generic,14,purple,50,True,taifels
37,9915,truth_conditions,bare,shells,generic,15,green,10,True,moxes
37,12451,truth_conditions,danger,scales,generic,16,red,70,True,blins
37,14766,truth_conditions,bare,feathers,generic,17,gold,30,True,plovs
37,11810,truth_conditions,bare,stripes,generic,18,copper,70,True,mooks
37,8200,truth_conditions,distinct,feathers,generic,19,red,90,True,noobs
37,14884,truth_conditions,danger,fur,generic,20,yellow,30,True,ollers
37,12759,truth_conditions,danger,spots,generic,21,copper,10,True,glippets
37,12964,truth_conditions,distinct,tails,generic,22,green,70,True,trufts
37,15938,truth_conditions,distinct,shells,generic,23,purple,10,True,javs
37,7826,truth_conditions,bare,fur,generic,24,copper,50,True,kweps
37,5749,truth_conditions,bare,tails,generic,25,orange,70,True,zorbs
37,8317,truth_conditions,bare,teeth,generic,26,green,30,True,zoovs
37,7057,truth_conditions,bare,ears,generic,27,orange,90,True,kazzes
37,19270,truth_conditions,danger,shells,generic,28,orange,90,True,luzaks
37,9627,truth_conditions,danger,teeth,generic,29,pink,50,True,krivels
38,10236,truth_conditions,danger,feathers,generic,0,red,90,True,noobs
38,5888,truth_conditions,bare,shells,generic,1,green,70,False,moxes
38,14443,truth_conditions,distinct,tails,generic,2,green,30,False,trufts
38,9504,truth_conditions,danger,tails,generic,3,purple,30,False,taifels
38,9732,truth_conditions,distinct,stripes,generic,4,copper,70,False,mooks
38,13143,truth_conditions,distinct,ears,generic,5,blue,90,True,cheebas
38,4264,truth_conditions,bare,stripes,generic,6,silver,50,False,frams
38,4130,truth_conditions,distinct,spots,generic,7,gold,10,False,stups
38,8051,truth_conditions,distinct,teeth,generic,8,blue,30,False,thups
38,4602,truth_conditions,bare,legs,generic,9,pink,90,False,feps
38,1750,truth_conditions,bare,spots,generic,10,copper,70,False,glippets
38,5298,truth_conditions,danger,teeth,generic,11,green,10,False,zoovs
38,9377,truth_conditions,danger,scales,generic,12,blue,70,False,reesles
38,8551,truth_conditions,distinct,feathers,generic,13,purple,90,True,lorches
38,4578,truth_conditions,distinct,fur,generic,14,copper,50,False,kweps
38,8021,truth_conditions,bare,fur,generic,15,silver,90,True,morseths
38,11967,truth_conditions,danger,spots,generic,16,red,50,True,sapers
38,13479,truth_conditions,distinct,shells,generic,17,purple,70,True,javs
38,1755,truth_conditions,distinct,legs,generic,18,yellow,10,False,ludinos
38,2945,truth_conditions,danger,stripes,generic,19,gold,10,False,daiths
38,5516,truth_conditions,bare,tails,generic,20,orange,10,False,zorbs
38,2246,truth_conditions,bare,feathers,generic,21,gold,30,False,plovs
38,3142,truth_conditions,danger,ears,generic,22,orange,30,False,kazzes
38,6292,truth_conditions,danger,shells,generic,23,orange,70,True,luzaks
38,3196,truth_conditions,danger,legs,generic,24,silver,90,True,ackles
38,5748,truth_conditions,danger,fur,generic,25,yellow,50,True,ollers
38,7085,truth_conditions,bare,scales,generic,26,yellow,50,True,dorbs
38,1449,truth_conditions,bare,teeth,generic,27,pink,10,False,krivels
38,3399,truth_conditions,bare,ears,generic,28,pink,30,False,elleps
38,3664,truth_conditions,distinct,scales,generic,29,red,50,True,blins
39,11144,truth_conditions,bare,tails,generic,0,orange,50,True,zorbs
39,9808,truth_conditions,distinct,feathers,generic,1,red,90,True,noobs
39,5880,truth_conditions,danger,tails,generic,2,purple,70,True,taifels
39,6383,truth_conditions,distinct,shells,generic,3,orange,50,True,luzaks
39,4288,truth_conditions,bare,scales,generic,4,red,30,False,blins
39,5808,truth_conditions,danger,fur,generic,5,copper,50,True,kweps
39,4345,truth_conditions,distinct,scales,generic,6,blue,30,False,reesles
39,10095,truth_conditions,danger,spots,generic,7,gold,30,True,stups
39,4200,truth_conditions,distinct,spots,generic,8,copper,10,False,glippets
39,3231,truth_conditions,danger,scales,generic,9,yellow,90,True,dorbs
39,3458,truth_conditions,bare,stripes,generic,10,gold,30,False,daiths
39,4591,truth_conditions,danger,ears,generic,11,pink,30,True,elleps
39,5041,truth_conditions,danger,legs,generic,12,pink,10,False,feps
39,3720,truth_conditions,distinct,ears,generic,13,blue,30,False,cheebas
39,6919,truth_conditions,distinct,fur,generic,14,yellow,70,True,ollers
39,3224,truth_conditions,bare,legs,generic,15,silver,50,True,ackles
39,5767,truth_conditions,distinct,tails,generic,16,green,10,False,trufts
39,5682,truth_conditions,distinct,legs,generic,17,yellow,90,True,ludinos
39,2816,truth_conditions,bare,shells,generic,18,green,70,True,moxes
39,2320,truth_conditions,bare,ears,generic,19,orange,90,True,kazzes
39,4358,truth_conditions,danger,shells,generic,20,purple,90,True,javs
39,2257,truth_conditions,bare,feathers,generic,21,gold,90,True,plovs
39,3288,truth_conditions,bare,fur,generic,22,silver,10,False,morseths
39,3369,truth_conditions,danger,teeth,generic,23,blue,50,True,thups
39,3118,truth_conditions,danger,feathers,generic,24,purple,10,False,lorches
39,2529,truth_conditions,distinct,teeth,generic,25,green,50,True,zoovs
39,3209,truth_conditions,distinct,stripes,generic,26,copper,70,True,mooks
39,1920,truth_conditions,bare,teeth,generic,27,pink,70,True,krivels
39,2096,truth_conditions,bare,spots,generic,28,red,10,False,sapers
39,3735,truth_conditions,danger,stripes,generic,29,silver,70,True,frams
40,6208,truth_conditions,danger,scales,generic,0,red,70,True,blins
40,1103,truth_conditions,bare,fur,generic,1,silver,70,True,morseths
40,1022,truth_conditions,danger,ears,generic,2,orange,90,True,kazzes
40,4376,truth_conditions,distinct,fur,generic,3,yellow,10,False,ollers
40,1013,truth_conditions,distinct,legs,generic,4,silver,50,True,ackles
40,914,truth_conditions,distinct,tails,generic,5,purple,70,True,taifels
40,1219,truth_conditions,bare,spots,generic,6,copper,30,True,glippets
40,1468,truth_conditions,distinct,shells,generic,7,green,70,True,moxes
40,2069,truth_conditions,distinct,spots,generic,8,gold,30,True,stups
40,1767,truth_conditions,danger,feathers,generic,9,purple,10,False,lorches
40,1132,truth_conditions,danger,legs,generic,10,pink,30,True,feps
40,766,truth_conditions,danger,stripes,generic,11,silver,50,True,frams
40,1109,truth_conditions,danger,spots,generic,12,red,70,True,sapers
40,1186,truth_conditions,bare,scales,generic,13,blue,90,True,reesles
40,1273,truth_conditions,bare,feathers,generic,14,red,30,True,noobs
40,821,truth_conditions,bare,stripes,generic,15,copper,50,True,mooks
40,1836,truth_conditions,distinct,scales,generic,16,yellow,90,True,dorbs
40,1156,truth_conditions,bare,teeth,generic,17,pink,50,True,krivels
40,1446,truth_conditions,danger,fur,generic,18,copper,50,True,kweps
40,1492,truth_conditions,distinct,feathers,generic,19,gold,10,False,plovs
40,1687,truth_conditions,bare,tails,generic,20,green,10,False,trufts
40,1923,truth_conditions,bare,ears,generic,21,blue,10,False,cheebas
40,1132,truth_conditions,bare,shells,generic,22,purple,90,True,javs
40,2701,truth_conditions,distinct,ears,generic,23,pink,90,True,elleps
40,1103,truth_conditions,bare,legs,generic,24,yellow,70,True,ludinos
40,1648,truth_conditions,danger,teeth,generic,25,blue,10,False,thups
40,1836,truth_conditions,danger,tails,generic,26,orange,30,True,zorbs
40,1204,truth_conditions,distinct,stripes,generic,27,gold,30,True,daiths
40,3907,truth_conditions,danger,shells,generic,28,orange,90,True,luzaks
40,1709,truth_conditions,distinct,teeth,generic,29,green,50,True,zoovs
41,14237,truth_conditions,danger,tails,generic,0,purple,90,True,taifels
41,3400,truth_conditions,distinct,teeth,generic,1,blue,50,True,thups
41,2715,truth_conditions,bare,tails,generic,2,orange,90,True,zorbs
41,2534,truth_conditions,danger,stripes,generic,3,silver,70,True,frams
41,15814,truth_conditions,distinct,shells,generic,4,green,10,True,moxes
41,106556,truth_conditions,danger,scales,generic,5,blue,50,True,reesles
41,2439,truth_conditions,distinct,ears,generic,6,blue,30,True,cheebas
41,2790,truth_conditions,bare,legs,generic,7,pink,50,True,feps
41,2015,truth_conditions,danger,fur,generic,8,copper,30,True,kweps
41,1673,truth_conditions,bare,teeth,generic,9,green,50,True,zoovs
41,16830,truth_conditions,danger,legs,generic,10,yellow,10,True,ludinos
41,2893,truth_conditions,danger,feathers,generic,11,red,50,True,noobs
41,2217,truth_conditions,bare,stripes,generic,12,gold,70,True,daiths
41,2550,truth_conditions,distinct,feathers,generic,13,purple,90,True,lorches
41,2939,truth_conditions,distinct,fur,generic,14,yellow,30,True,ollers
41,2369,truth_conditions,danger,shells,generic,15,purple,30,True,javs
41,4449,truth_conditions,bare,feathers,generic,16,gold,10,True,plovs
41,2221,truth_conditions,bare,scales,generic,17,yellow,30,True,dorbs
41,2557,truth_conditions,bare,spots,generic,18,copper,30,True,glippets
41,1166,truth_conditions,distinct,scales,generic,19,red,90,True,blins
41,1902,truth_conditions,distinct,legs,generic,20,silver,70,True,ackles
41,1488,truth_conditions,danger,spots,generic,21,red,90,True,sapers
41,3481,truth_conditions,bare,fur,generic,22,silver,90,True,morseths
41,1299,truth_conditions,bare,shells,generic,23,orange,10,False,luzaks
41,2009,truth_conditions,danger,ears,generic,24,pink,10,False,elleps
41,2396,truth_conditions,distinct,stripes,generic,25,copper,10,False,mooks
41,1190,truth_conditions,distinct,spots,generic,26,gold,50,True,stups
41,1643,truth_conditions,bare,ears,generic,27,orange,70,True,kazzes
41,1900,truth_conditions,distinct,tails,generic,28,green,70,True,trufts
41,1752,truth_conditions,danger,teeth,generic,29,pink,70,True,krivels
42,12704,truth_conditions,distinct,feathers,generic,0,purple,90,True,lorches
42,11258,truth_conditions,danger,shells,generic,1,purple,30,True,javs
42,6997,truth_conditions,bare,scales,generic,2,blue,50,False,reesles
42,6305,truth_conditions,bare,fur,generic,3,copper,70,True,kweps
42,6439,truth_conditions,danger,tails,generic,4,purple,70,True,taifels
42,5264,truth_conditions,bare,teeth,generic,5,blue,10,False,thups
42,6040,truth_conditions,danger,teeth,generic,6,green,90,True,zoovs
42,5862,truth_conditions,danger,legs,generic,7,silver,30,False,ackles
42,4776,truth_conditions,danger,stripes,generic,8,copper,10,False,mooks
42,6031,truth_conditions,distinct,ears,generic,9,blue,70,True,cheebas
42,6680,truth_conditions,bare,spots,generic,10,copper,30,False,glippets
42,3519,truth_conditions,distinct,teeth,generic,11,pink,90,True,krivels
42,9216,truth_conditions,distinct,tails,generic,12,green,30,False,trufts
42,5143,truth_conditions,distinct,legs,generic,13,yellow,30,False,ludinos
42,3984,truth_conditions,bare,shells,generic,14,green,90,True,moxes
42,8320,truth_conditions,danger,ears,generic,15,pink,50,True,elleps
42,4533,truth_conditions,danger,fur,generic,16,silver,10,False,morseths
42,4695,truth_conditions,danger,spots,generic,17,red,90,True,sapers
42,3815,truth_conditions,distinct,spots,generic,18,gold,10,False,stups
42,3207,truth_conditions,bare,ears,generic,19,orange,90,True,kazzes
42,3567,truth_conditions,danger,feathers,generic,20,gold,50,True,plovs
42,3495,truth_conditions,bare,tails,generic,21,orange,70,True,zorbs
42,5935,truth_conditions,distinct,fur,generic,22,yellow,70,True,ollers
42,3704,truth_conditions,bare,stripes,generic,23,silver,10,False,frams
42,4113,truth_conditions,distinct,shells,generic,24,orange,10,False,luzaks
42,6749,truth_conditions,danger,scales,generic,25,red,70,True,blins
42,3816,truth_conditions,distinct,stripes,generic,26,gold,50,True,daiths
42,3518,truth_conditions,distinct,scales,generic,27,yellow,50,True,dorbs
42,3928,truth_conditions,bare,legs,generic,28,pink,50,True,feps
42,2582,truth_conditions,bare,feathers,generic,29,red,30,False,noobs
43,9124,truth_conditions,danger,fur,generic,0,copper,30,True,kweps
43,5665,truth_conditions,danger,feathers,generic,1,purple,10,True,lorches
43,6334,truth_conditions,distinct,ears,generic,2,blue,50,True,cheebas
43,5177,truth_conditions,bare,feathers,generic,3,red,50,True,noobs
43,10096,truth_conditions,danger,scales,generic,4,blue,70,True,reesles
43,3510,truth_conditions,distinct,shells,generic,5,green,70,True,moxes
43,3390,truth_conditions,danger,tails,generic,6,green,90,True,trufts
43,4028,truth_conditions,bare,scales,generic,7,yellow,90,True,dorbs
43,2536,truth_conditions,bare,legs,generic,8,pink,10,True,feps
43,5630,truth_conditions,danger,teeth,generic,9,pink,50,True,krivels
43,2387,truth_conditions,distinct,legs,generic,10,silver,30,True,ackles
43,2179,truth_conditions,bare,ears,generic,11,pink,50,True,elleps
43,12348,truth_conditions,distinct,tails,generic,12,orange,90,True,zorbs
43,9831,truth_conditions,danger,legs,generic,13,yellow,30,True,ludinos
43,2687,truth_conditions,distinct,fur,generic,14,silver,90,True,morseths
43,3412,truth_conditions,bare,tails,generic,15,purple,70,True,taifels
43,2255,truth_conditions,bare,stripes,generic,16,silver,10,True,frams
43,3373,truth_conditions,danger,stripes,generic,17,gold,70,True,daiths
43,15152,truth_conditions,bare,teeth,generic,18,green,70,True,zoovs
43,3114,truth_conditions,bare,shells,generic,19,purple,30,True,javs
43,2673,truth_conditions,bare,fur,generic,20,yellow,90,True,ollers
43,3281,truth_conditions,danger,spots,generic,21,gold,10,True,stups
43,5662,truth_conditions,distinct,feathers,generic,22,gold,10,True,plovs
43,16672,truth_conditions,distinct,stripes,generic,23,copper,30,True,mooks
43,3428,truth_conditions,distinct,spots,generic,24,red,50,True,sapers
43,18552,truth_conditions,distinct,teeth,generic,25,blue,70,True,thups
43,2599,truth_conditions,distinct,scales,generic,26,red,10,True,blins
43,7070,truth_conditions,danger,ears,generic,27,orange,90,True,kazzes
43,2185,truth_conditions,bare,spots,generic,28,copper,30,True,glippets
43,3897,truth_conditions,danger,shells,generic,29,orange,50,True,luzaks
44,6220,truth_conditions,bare,spots,generic,0,red,50,False,sapers
44,11800,truth_conditions,danger,spots,generic,1,copper,30,True,glippets
44,5238,truth_conditions,danger,scales,generic,2,yellow,10,False,dorbs
44,9608,truth_conditions,distinct,ears,generic,3,blue,10,False,cheebas
44,5201,truth_conditions,distinct,teeth,generic,4,green,90,True,zoovs
44,5487,truth_conditions,bare,stripes,generic,5,silver,70,True,frams
44,3143,truth_conditions,bare,ears,generic,6,orange,70,True,kazzes
44,6417,truth_conditions,danger,legs,generic,7,yellow,90,True,ludinos
44,4951,truth_conditions,danger,shells,generic,8,purple,30,False,javs
44,3056,truth_conditions,bare,feathers,generic,9,gold,30,False,plovs
44,3326,truth_conditions,bare,tails,generic,10,green,10,False,trufts
44,4839,truth_conditions,danger,teeth,generic,11,blue,70,True,thups
44,3287,truth_conditions,danger,feathers,generic,12,purple,50,False,lorches
44,4711,truth_conditions,bare,legs,generic,13,pink,90,True,feps
44,5351,truth_conditions,distinct,feathers,generic,14,red,30,False,noobs
44,4423,truth_conditions,distinct,tails,generic,15,orange,50,False,zorbs
44,4756,truth_conditions,danger,fur,generic,16,silver,50,False,morseths
44,3965,truth_conditions,bare,shells,generic,17,green,50,False,moxes
44,4965,truth_conditions,distinct,shells,generic,18,orange,90,True,luzaks
44,5925,truth_conditions,distinct,fur,generic,19,yellow,70,True,ollers
44,4076,truth_conditions,danger,ears,generic,20,pink,10,False,elleps
44,10382,truth_conditions,danger,tails,generic,21,purple,70,True,taifels
44,2904,truth_conditions,distinct,scales,generic,22,red,30,False,blins
44,4942,truth_conditions,distinct,spots,generic,23,gold,70,True,stups
44,3321,truth_conditions,bare,fur,generic,24,copper,90,True,kweps
44,4606,truth_conditions,danger,stripes,generic,25,gold,90,True,daiths
44,3209,truth_conditions,distinct,stripes,generic,26,copper,50,False,mooks
44,3663,truth_conditions,bare,teeth,generic,27,pink,10,False,krivels
44,3527,truth_conditions,distinct,legs,generic,28,silver,10,False,ackles
44,3359,truth_conditions,bare,scales,generic,29,blue,30,False,reesles
45,16134,truth_conditions,distinct,teeth,generic,0,green,50,True,zoovs
45,8583,truth_conditions,bare,tails,generic,1,purple,10,False,taifels
45,12213,truth_conditions,danger,stripes,generic,2,gold,50,True,daiths
45,6624,truth_conditions,distinct,scales,generic,3,blue,50,True,reesles
45,8554,truth_conditions,danger,teeth,generic,4,blue,10,False,thups
45,6840,truth_conditions,distinct,tails,generic,5,green,30,False,trufts
45,7334,truth_conditions,danger,spots,generic,6,copper,70,True,glippets
45,4808,truth_conditions,bare,stripes,generic,7,silver,30,False,frams
45,4085,truth_conditions,bare,spots,generic,8,red,90,True,sapers
45,5615,truth_conditions,danger,scales,generic,9,red,30,False,blins
45,4439,truth_conditions,bare,fur,generic,10,silver,30,False,morseths
45,2098,truth_conditions,bare,teeth,generic,11,pink,90,True,krivels
45,4314,truth_conditions,distinct,spots,generic,12,gold,10,False,stups
45,3055,truth_conditions,danger,shells,generic,13,orange,70,True,luzaks
45,4970,truth_conditions,distinct,ears,generic,14,pink,10,False,elleps
45,4960,truth_conditions,distinct,stripes,generic,15,copper,70,True,mooks
45,2731,truth_conditions,danger,ears,generic,16,blue,90,True,cheebas
45,4591,truth_conditions,danger,legs,generic,17,pink,10,False,feps
45,2456,truth_conditions,distinct,fur,generic,18,copper,70,True,kweps
45,3745,truth_conditions,bare,shells,generic,19,green,10,False,moxes
45,2508,truth_conditions,bare,scales,generic,20,yellow,70,True,dorbs
45,2486,truth_conditions,distinct,feathers,generic,21,gold,90,True,plovs
45,3209,truth_conditions,danger,feathers,generic,22,purple,30,False,lorches
45,2839,truth_conditions,bare,ears,generic,23,orange,50,True,kazzes
45,5126,truth_conditions,danger,fur,generic,24,yellow,90,True,ollers
45,3247,truth_conditions,bare,feathers,generic,25,red,70,True,noobs
45,4095,truth_conditions,distinct,legs,generic,26,silver,30,False,ackles
45,2760,truth_conditions,bare,legs,generic,27,yellow,50,True,ludinos
45,2559,truth_conditions,distinct,shells,generic,28,purple,90,True,javs
45,2868,truth_conditions,danger,tails,generic,29,orange,50,True,zorbs
46,6743,truth_conditions,bare,tails,generic,0,green,90,True,trufts
46,10027,truth_conditions,danger,spots,generic,1,red,30,False,sapers
46,4951,truth_conditions,danger,tails,generic,2,purple,90,True,taifels
46,3889,truth_conditions,bare,legs,generic,3,yellow,30,False,ludinos
46,2629,truth_conditions,bare,ears,generic,4,blue,10,False,cheebas
46,5033,truth_conditions,distinct,tails,generic,5,orange,30,False,zorbs
46,5070,truth_conditions,bare,teeth,generic,6,green,30,False,zoovs
46,2440,truth_conditions,bare,stripes,generic,7,silver,10,False,frams
46,3407,truth_conditions,bare,scales,generic,8,blue,50,False,reesles
46,5071,truth_conditions,distinct,stripes,generic,9,copper,90,True,mooks
46,9488,truth_conditions,distinct,fur,generic,10,silver,50,True,morseths
46,2607,truth_conditions,distinct,ears,generic,11,orange,90,True,kazzes
46,4087,truth_conditions,distinct,feathers,generic,12,purple,70,True,lorches
46,2295,truth_conditions,distinct,shells,generic,13,orange,70,True,luzaks
46,5063,truth_conditions,danger,teeth,generic,14,blue,10,False,thups
46,8304,truth_conditions,danger,stripes,generic,15,gold,70,True,daiths
46,5535,truth_conditions,distinct,spots,generic,16,gold,30,False,stups
46,1879,truth_conditions,distinct,scales,generic,17,red,10,False,blins
46,2831,truth_conditions,bare,fur,generic,18,yellow,70,True,ollers
46,2240,truth_conditions,bare,feathers,generic,19,gold,50,True,plovs
46,3071,truth_conditions,bare,shells,generic,20,green,70,True,moxes
46,3015,truth_conditions,distinct,teeth,generic,21,pink,50,True,krivels
46,3024,truth_conditions,danger,shells,generic,22,purple,30,False,javs
46,3231,truth_conditions,bare,spots,generic,23,copper,90,True,glippets
46,4777,truth_conditions,distinct,legs,generic,24,silver,10,False,ackles
46,1615,truth_conditions,danger,ears,generic,25,pink,10,False,elleps
