workerid,rt,trial_type,stim_type,stim_property,stim_determiner,trialNum,stim_prevalence,trial_num,response,stim_category
0,9603,truth_conditions,accidental,swollen skin,generic,0,50,NA,False,ollers
0,5235,truth_conditions,accidental,broken tails,generic,1,30,NA,False,ludinos
0,2151,truth_conditions,accidental,rotting shells,generic,2,70,NA,True,ackles
0,2416,truth_conditions,accidental,itchy tails,generic,3,50,NA,False,trufts
0,4126,truth_conditions,accidental,infected ears,generic,4,10,NA,False,morseths
0,1384,truth_conditions,accidental,infected scales,generic,5,30,NA,False,elleps
0,1310,truth_conditions,accidental,rotting teeth,generic,6,10,NA,False,sapers
0,3410,truth_conditions,accidental,muddy fur,generic,7,50,NA,True,reesles
0,1360,truth_conditions,accidental,swollen ears,generic,8,70,NA,True,stups
0,1656,truth_conditions,accidental,muddy feathers,generic,9,50,NA,True,blins
0,1230,truth_conditions,accidental,cracked shells,generic,10,70,NA,True,frams
0,1408,truth_conditions,accidental,sore teeth,generic,11,30,NA,False,zorbs
0,1145,truth_conditions,accidental,itchy skin,generic,12,10,NA,False,kweps
0,1869,truth_conditions,accidental,broken legs,generic,13,90,NA,True,lorches
0,1591,truth_conditions,accidental,sore legs,generic,14,30,NA,False,feps
0,1319,truth_conditions,accidental,fungus-covered scales,generic,15,10,NA,False,moxes
0,1656,truth_conditions,accidental,fungus-covered claws,generic,16,90,NA,True,daiths
0,1375,truth_conditions,accidental,wet fur,generic,17,90,NA,True,zoovs
0,1336,truth_conditions,accidental,wet feathers,generic,18,70,NA,True,taifels
0,1231,truth_conditions,accidental,cracked claws,generic,19,90,NA,True,krivels
1,16697,truth_conditions,accidental,cracked shells,generic,0,30,NA,False,trufts
1,5980,truth_conditions,accidental,fungus-covered scales,generic,1,10,NA,False,reesles
1,5032,truth_conditions,accidental,wet feathers,generic,2,10,NA,False,lorches
1,3607,truth_conditions,accidental,sore legs,generic,3,50,NA,False,morseths
1,4832,truth_conditions,accidental,itchy skin,generic,4,70,NA,False,ackles
1,1978,truth_conditions,accidental,fungus-covered claws,generic,5,30,NA,False,feps
1,2016,truth_conditions,accidental,muddy feathers,generic,6,10,NA,False,blins
1,5064,truth_conditions,accidental,broken tails,generic,7,70,NA,False,mooks
1,2293,truth_conditions,accidental,swollen ears,generic,8,10,NA,False,luzaks
1,3027,truth_conditions,accidental,muddy fur,generic,9,90,NA,True,taifels
1,3586,truth_conditions,accidental,itchy tails,generic,10,90,NA,True,noobs
1,2274,truth_conditions,accidental,infected scales,generic,11,50,NA,False,kazzes
1,2324,truth_conditions,accidental,wet fur,generic,12,30,NA,False,stups
1,1590,truth_conditions,accidental,swollen skin,generic,13,50,NA,False,thups
1,1909,truth_conditions,accidental,cracked claws,generic,14,90,NA,True,elleps
1,1781,truth_conditions,accidental,sore teeth,generic,15,50,NA,False,cheebas
1,3119,truth_conditions,accidental,rotting teeth,generic,16,70,NA,False,dorbs
1,2963,truth_conditions,accidental,broken legs,generic,17,70,NA,False,kweps
1,2034,truth_conditions,accidental,rotting shells,generic,18,30,NA,False,sapers
1,2470,truth_conditions,accidental,infected ears,generic,19,90,NA,True,plovs
2,8272,truth_conditions,accidental,muddy fur,generic,0,10,NA,False,kweps
2,7614,truth_conditions,accidental,rotting teeth,generic,1,50,NA,True,lorches
2,4587,truth_conditions,accidental,cracked shells,generic,2,90,NA,True,noobs
2,3504,truth_conditions,accidental,broken tails,generic,3,90,NA,True,luzaks
2,4351,truth_conditions,accidental,sore teeth,generic,4,50,NA,True,morseths
2,2865,truth_conditions,accidental,infected scales,generic,5,30,NA,False,ackles
2,3356,truth_conditions,accidental,fungus-covered scales,generic,6,30,NA,False,zoovs
2,3879,truth_conditions,accidental,wet fur,generic,7,30,NA,False,zorbs
2,2897,truth_conditions,accidental,infected ears,generic,8,10,NA,False,dorbs
2,5071,truth_conditions,accidental,rotting shells,generic,9,50,NA,True,feps
2,3037,truth_conditions,accidental,itchy tails,generic,10,70,NA,True,mooks
2,2986,truth_conditions,accidental,cracked claws,generic,11,90,NA,True,daiths
2,3448,truth_conditions,accidental,fungus-covered claws,generic,12,70,NA,True,javs
2,3937,truth_conditions,accidental,itchy skin,generic,13,70,NA,True,ollers
2,4872,truth_conditions,accidental,swollen ears,generic,14,10,NA,False,cheebas
2,2674,truth_conditions,accidental,swollen skin,generic,15,30,NA,False,ludinos
2,3637,truth_conditions,accidental,broken legs,generic,16,10,NA,False,blins
2,2673,truth_conditions,accidental,sore legs,generic,17,50,NA,True,plovs
2,2879,truth_conditions,accidental,muddy feathers,generic,18,90,NA,True,glippets
2,3067,truth_conditions,accidental,wet feathers,generic,19,70,NA,True,reesles
3,16974,implied_prevalence,accidental,fungus-covered scales,generic,NA,NA,0,99,noobs
3,10174,implied_prevalence,accidental,cracked claws,generic,NA,NA,1,99,luzaks
3,9049,implied_prevalence,accidental,itchy skin,generic,NA,NA,2,90,sapers
3,16865,implied_prevalence,accidental,infected ears,generic,NA,NA,3,90,ackles
3,8982,implied_prevalence,accidental,itchy tails,generic,NA,NA,4,90,stups
3,6991,implied_prevalence,accidental,sore teeth,generic,NA,NA,5,90,ollers
3,13757,implied_prevalence,accidental,broken legs,generic,NA,NA,6,90,taifels
3,5414,implied_prevalence,accidental,sore legs,generic,NA,NA,7,90,kweps
3,3555,implied_prevalence,accidental,broken tails,generic,NA,NA,8,90,krivels
3,7169,implied_prevalence,accidental,infected scales,generic,NA,NA,9,90,trufts
3,4571,implied_prevalence,accidental,swollen ears,generic,NA,NA,10,90,reesles
3,3792,implied_prevalence,accidental,cracked shells,generic,NA,NA,11,90,daiths
3,2983,implied_prevalence,accidental,swollen skin,generic,NA,NA,12,90,moxes
3,4412,implied_prevalence,accidental,wet fur,generic,NA,NA,13,90,cheebas
3,4794,implied_prevalence,accidental,fungus-covered claws,generic,NA,NA,14,90,zorbs
3,4647,implied_prevalence,accidental,rotting shells,generic,NA,NA,15,90,blins
3,5194,implied_prevalence,accidental,muddy feathers,generic,NA,NA,16,90,mooks
3,3472,implied_prevalence,accidental,rotting teeth,generic,NA,NA,17,90,dorbs
3,3315,implied_prevalence,accidental,wet feathers,generic,NA,NA,18,90,elleps
3,3292,implied_prevalence,accidental,muddy fur,generic,NA,NA,19,90,glippets
4,6691,implied_prevalence,accidental,rotting shells,generic,NA,NA,0,20,reesles
4,6578,implied_prevalence,accidental,cracked claws,generic,NA,NA,1,10,dorbs
4,3666,implied_prevalence,accidental,wet feathers,generic,NA,NA,2,30,zorbs
4,4648,implied_prevalence,accidental,muddy fur,generic,NA,NA,3,25,thups
4,4127,implied_prevalence,accidental,wet fur,generic,NA,NA,4,30,lorches
4,3384,implied_prevalence,accidental,swollen skin,generic,NA,NA,5,5,ackles
4,5152,implied_prevalence,accidental,broken tails,generic,NA,NA,6,2,moxes
4,4999,implied_prevalence,accidental,sore teeth,generic,NA,NA,7,8,cheebas
4,4454,implied_prevalence,accidental,muddy feathers,generic,NA,NA,8,20,sapers
4,3536,implied_prevalence,accidental,rotting teeth,generic,NA,NA,9,5,ludinos
4,4072,implied_prevalence,accidental,broken legs,generic,NA,NA,10,1,stups
4,3511,implied_prevalence,accidental,infected scales,generic,NA,NA,11,3,kweps
4,3808,implied_prevalence,accidental,cracked shells,generic,NA,NA,12,6,mooks
4,3222,implied_prevalence,accidental,itchy tails,generic,NA,NA,13,10,frams
4,3752,implied_prevalence,accidental,sore legs,generic,NA,NA,14,25,morseths
4,6368,implied_prevalence,accidental,fungus-covered claws,generic,NA,NA,15,25,javs
4,3463,implied_prevalence,accidental,itchy skin,generic,NA,NA,16,15,luzaks
4,3104,implied_prevalence,accidental,infected ears,generic,NA,NA,17,2,plovs
4,4447,implied_prevalence,accidental,swollen ears,generic,NA,NA,18,8,noobs
4,4811,implied_prevalence,accidental,fungus-covered scales,generic,NA,NA,19,15,trufts
5,10349,implied_prevalence,accidental,broken legs,generic,NA,NA,0,100,ackles
5,4159,implied_prevalence,accidental,sore teeth,generic,NA,NA,1,100,taifels
5,4679,implied_prevalence,accidental,fungus-covered claws,generic,NA,NA,2,100,luzaks
5,5031,implied_prevalence,accidental,fungus-covered scales,generic,NA,NA,3,90,mooks
5,4144,implied_prevalence,accidental,infected ears,generic,NA,NA,4,50,reesles
5,4857,implied_prevalence,accidental,cracked shells,generic,NA,NA,5,50,trufts
5,3776,implied_prevalence,accidental,muddy fur,generic,NA,NA,6,80,morseths
5,3703,implied_prevalence,accidental,wet feathers,generic,NA,NA,7,30,krivels
5,3329,implied_prevalence,accidental,infected scales,generic,NA,NA,8,15,kweps
5,3064,implied_prevalence,accidental,rotting shells,generic,NA,NA,9,5,noobs
5,4175,implied_prevalence,accidental,muddy feathers,generic,NA,NA,10,75,blins
5,4232,implied_prevalence,accidental,cracked claws,generic,NA,NA,11,30,feps
5,3713,implied_prevalence,accidental,broken tails,generic,NA,NA,12,10,zoovs
5,3119,implied_prevalence,accidental,rotting teeth,generic,NA,NA,13,25,kazzes
5,4472,implied_prevalence,accidental,wet fur,generic,NA,NA,14,80,ludinos
5,3369,implied_prevalence,accidental,itchy tails,generic,NA,NA,15,5,lorches
5,3471,implied_prevalence,accidental,swollen ears,generic,NA,NA,16,7,sapers
5,4248,implied_prevalence,accidental,itchy skin,generic,NA,NA,17,65,cheebas
5,3593,implied_prevalence,accidental,sore legs,generic,NA,NA,18,15,dorbs
5,3680,implied_prevalence,accidental,swollen skin,generic,NA,NA,19,30,moxes
6,14403,truth_conditions,accidental,cracked shells,generic,0,90,NA,True,kazzes
6,5141,truth_conditions,accidental,muddy feathers,generic,1,30,NA,False,sapers
6,4137,truth_conditions,accidental,swollen skin,generic,2,70,NA,True,morseths
6,4760,truth_conditions,accidental,rotting shells,generic,3,50,NA,False,ludinos
6,3856,truth_conditions,accidental,fungus-covered scales,generic,4,50,NA,False,zorbs
6,3935,truth_conditions,accidental,swollen ears,generic,5,30,NA,False,daiths
6,3753,truth_conditions,accidental,cracked claws,generic,6,90,NA,True,frams
6,2895,truth_conditions,accidental,itchy skin,generic,7,30,NA,False,stups
6,3455,truth_conditions,accidental,broken legs,generic,8,70,NA,True,cheebas
6,3400,truth_conditions,accidental,broken tails,generic,9,50,NA,False,taifels
6,3720,truth_conditions,accidental,sore legs,generic,10,90,NA,True,reesles
6,3137,truth_conditions,accidental,sore teeth,generic,11,10,NA,False,javs
6,3184,truth_conditions,accidental,fungus-covered claws,generic,12,70,NA,True,glippets
6,3288,truth_conditions,accidental,muddy fur,generic,13,70,NA,True,luzaks
6,4576,truth_conditions,accidental,rotting teeth,generic,14,50,NA,True,blins
6,5033,truth_conditions,accidental,wet fur,generic,15,30,NA,False,noobs
6,2384,truth_conditions,accidental,itchy tails,generic,16,90,NA,True,plovs
6,2767,truth_conditions,accidental,infected ears,generic,17,10,NA,False,elleps
6,2271,truth_conditions,accidental,infected scales,generic,18,10,NA,False,moxes
6,3543,truth_conditions,accidental,wet feathers,generic,19,10,NA,False,zoovs
7,7409,implied_prevalence,accidental,itchy tails,generic,NA,NA,0,60,dorbs
7,7646,implied_prevalence,accidental,fungus-covered claws,generic,NA,NA,1,10,cheebas
7,7572,implied_prevalence,accidental,wet feathers,generic,NA,NA,2,60,javs
7,3839,implied_prevalence,accidental,infected scales,generic,NA,NA,3,20,ollers
7,3183,implied_prevalence,accidental,itchy skin,generic,NA,NA,4,90,krivels
7,4204,implied_prevalence,accidental,rotting teeth,generic,NA,NA,5,90,trufts
7,3296,implied_prevalence,accidental,infected ears,generic,NA,NA,6,85,kweps
7,3744,implied_prevalence,accidental,muddy fur,generic,NA,NA,7,15,ackles
7,3929,implied_prevalence,accidental,broken tails,generic,NA,NA,8,20,reesles
7,3364,implied_prevalence,accidental,swollen skin,generic,NA,NA,9,50,ludinos
7,4004,implied_prevalence,accidental,broken legs,generic,NA,NA,10,45,frams
7,5540,implied_prevalence,accidental,cracked claws,generic,NA,NA,11,35,taifels
7,4763,implied_prevalence,accidental,wet fur,generic,NA,NA,12,80,noobs
7,4875,implied_prevalence,accidental,fungus-covered scales,generic,NA,NA,13,85,luzaks
7,11350,implied_prevalence,accidental,cracked shells,generic,NA,NA,14,25,mooks
7,5009,implied_prevalence,accidental,rotting shells,generic,NA,NA,15,45,sapers
7,20690,implied_prevalence,accidental,muddy feathers,generic,NA,NA,16,70,feps
7,3971,implied_prevalence,accidental,sore legs,generic,NA,NA,17,50,kazzes
7,3928,implied_prevalence,accidental,swollen ears,generic,NA,NA,18,75,elleps
7,3934,implied_prevalence,accidental,sore teeth,generic,NA,NA,19,60,blins
8,6669,implied_prevalence,accidental,itchy skin,generic,NA,NA,0,80,noobs
8,5647,implied_prevalence,accidental,swollen skin,generic,NA,NA,1,100,taifels
8,4320,implied_prevalence,accidental,rotting shells,generic,NA,NA,2,100,stups
8,5537,implied_prevalence,accidental,infected scales,generic,NA,NA,3,95,reesles
8,4327,implied_prevalence,accidental,wet feathers,generic,NA,NA,4,100,kweps
8,4528,implied_prevalence,accidental,rotting teeth,generic,NA,NA,5,85,zoovs
8,6000,implied_prevalence,accidental,itchy tails,generic,NA,NA,6,100,krivels
8,6665,implied_prevalence,accidental,sore legs,generic,NA,NA,7,99,dorbs
8,3947,implied_prevalence,accidental,infected ears,generic,NA,NA,8,88,javs
8,4536,implied_prevalence,accidental,sore teeth,generic,NA,NA,9,100,plovs
8,4063,implied_prevalence,accidental,cracked shells,generic,NA,NA,10,90,ollers
8,7647,implied_prevalence,accidental,muddy fur,generic,NA,NA,11,97,sapers
8,3785,implied_prevalence,accidental,broken legs,generic,NA,NA,12,100,cheebas
8,3591,implied_prevalence,accidental,fungus-covered scales,generic,NA,NA,13,100,trufts
8,3208,implied_prevalence,accidental,wet fur,generic,NA,NA,14,100,blins
8,5063,implied_prevalence,accidental,muddy feathers,generic,NA,NA,15,95,kazzes
8,5519,implied_prevalence,accidental,cracked claws,generic,NA,NA,16,98,lorches
8,3767,implied_prevalence,accidental,swollen ears,generic,NA,NA,17,100,morseths
8,4022,implied_prevalence,accidental,broken tails,generic,NA,NA,18,90,glippets
8,3840,implied_prevalence,accidental,fungus-covered claws,generic,NA,NA,19,100,ludinos
9,6829,implied_prevalence,accidental,broken tails,generic,NA,NA,0,70,luzaks
9,2812,implied_prevalence,accidental,swollen ears,generic,NA,NA,1,50,zoovs
9,4306,implied_prevalence,accidental,muddy fur,generic,NA,NA,2,80,ollers
9,3517,implied_prevalence,accidental,infected scales,generic,NA,NA,3,15,glippets
9,4848,implied_prevalence,accidental,fungus-covered claws,generic,NA,NA,4,43,moxes
9,4594,implied_prevalence,accidental,cracked claws,generic,NA,NA,5,90,dorbs
9,3893,implied_prevalence,accidental,sore teeth,generic,NA,NA,6,10,morseths
9,2938,implied_prevalence,accidental,cracked shells,generic,NA,NA,7,5,daiths
9,3009,implied_prevalence,accidental,wet feathers,generic,NA,NA,8,100,kweps
9,3713,implied_prevalence,accidental,itchy tails,generic,NA,NA,9,20,trufts
9,3604,implied_prevalence,accidental,sore legs,generic,NA,NA,10,15,lorches
9,4124,implied_prevalence,accidental,muddy feathers,generic,NA,NA,11,55,reesles
9,6924,implied_prevalence,accidental,broken legs,generic,NA,NA,12,5,blins
9,3096,implied_prevalence,accidental,rotting teeth,generic,NA,NA,13,30,zorbs
9,3772,implied_prevalence,accidental,wet fur,generic,NA,NA,14,75,noobs
9,8015,implied_prevalence,accidental,itchy skin,generic,NA,NA,15,43,thups
9,3543,implied_prevalence,accidental,swollen skin,generic,NA,NA,16,20,plovs
9,2768,implied_prevalence,accidental,fungus-covered scales,generic,NA,NA,17,25,cheebas
9,2405,implied_prevalence,accidental,infected ears,generic,NA,NA,18,10,sapers
9,2538,implied_prevalence,accidental,rotting shells,generic,NA,NA,19,5,krivels
10,9484,truth_conditions,accidental,broken legs,generic,0,50,NA,True,reesles
10,5860,truth_conditions,accidental,cracked shells,generic,1,70,NA,True,kweps
10,8732,truth_conditions,accidental,fungus-covered scales,generic,2,70,NA,True,zorbs
10,10381,truth_conditions,accidental,broken tails,generic,3,10,NA,False,ackles
10,4980,truth_conditions,accidental,swollen skin,generic,4,50,NA,True,luzaks
10,7801,truth_conditions,accidental,infected ears,generic,5,90,NA,True,stups
10,3924,truth_conditions,accidental,cracked claws,generic,6,10,NA,False,mooks
10,3989,truth_conditions,accidental,swollen ears,generic,7,70,NA,True,trufts
10,5533,truth_conditions,accidental,wet feathers,generic,8,90,NA,True,ludinos
10,5436,truth_conditions,accidental,infected scales,generic,9,90,NA,True,ollers
10,7146,truth_conditions,accidental,itchy tails,generic,10,30,NA,False,daiths
10,5172,truth_conditions,accidental,muddy fur,generic,11,10,NA,False,cheebas
10,3804,truth_conditions,accidental,rotting shells,generic,12,50,NA,True,moxes
10,5113,truth_conditions,accidental,fungus-covered claws,generic,13,90,NA,True,frams
10,6642,truth_conditions,accidental,rotting teeth,generic,14,30,NA,False,taifels
10,6683,truth_conditions,accidental,muddy feathers,generic,15,10,NA,False,blins
10,5234,truth_conditions,accidental,sore legs,generic,16,50,NA,True,dorbs
10,4240,truth_conditions,accidental,sore teeth,generic,17,70,NA,True,kazzes
10,3281,truth_conditions,accidental,itchy skin,generic,18,30,NA,False,elleps
10,4489,truth_conditions,accidental,wet fur,generic,19,30,NA,False,feps
11,5468,implied_prevalence,accidental,itchy skin,generic,NA,NA,0,90,kazzes
11,4311,implied_prevalence,accidental,cracked shells,generic,NA,NA,1,85,glippets
11,4479,implied_prevalence,accidental,infected ears,generic,NA,NA,2,75,javs
11,4017,implied_prevalence,accidental,itchy tails,generic,NA,NA,3,85,lorches
11,4175,implied_prevalence,accidental,infected scales,generic,NA,NA,4,80,frams
11,3457,implied_prevalence,accidental,sore teeth,generic,NA,NA,5,78,morseths
11,2759,implied_prevalence,accidental,swollen skin,generic,NA,NA,6,84,taifels
11,2872,implied_prevalence,accidental,rotting teeth,generic,NA,NA,7,81,kweps
11,2953,implied_prevalence,accidental,muddy feathers,generic,NA,NA,8,79,luzaks
11,4882,implied_prevalence,accidental,wet feathers,generic,NA,NA,9,74,ackles
11,4239,implied_prevalence,accidental,fungus-covered claws,generic,NA,NA,10,90,moxes
11,5090,implied_prevalence,accidental,broken tails,generic,NA,NA,11,77,daiths
11,2166,implied_prevalence,accidental,swollen ears,generic,NA,NA,12,88,ollers
11,2392,implied_prevalence,accidental,rotting shells,generic,NA,NA,13,84,zoovs
11,3023,implied_prevalence,accidental,fungus-covered scales,generic,NA,NA,14,91,trufts
11,3265,implied_prevalence,accidental,broken legs,generic,NA,NA,15,76,mooks
11,2641,implied_prevalence,accidental,wet fur,generic,NA,NA,16,86,krivels
11,2928,implied_prevalence,accidental,muddy fur,generic,NA,NA,17,82,elleps
11,2872,implied_prevalence,accidental,cracked claws,generic,NA,NA,18,80,blins
11,3457,implied_prevalence,accidental,sore legs,generic,NA,NA,19,73,cheebas
12,10088,truth_conditions,accidental,sore teeth,generic,0,10,NA,False,trufts
12,5281,truth_conditions,accidental,broken legs,generic,1,50,NA,False,elleps
12,17071,truth_conditions,accidental,cracked claws,generic,2,90,NA,False,daiths
12,4257,truth_conditions,accidental,broken tails,generic,3,30,NA,False,krivels
12,3774,truth_conditions,accidental,wet fur,generic,4,70,NA,False,kweps
12,3957,truth_conditions,accidental,rotting teeth,generic,5,10,NA,False,morseths
12,11309,truth_conditions,accidental,fungus-covered claws,generic,6,90,NA,False,lorches
12,4949,truth_conditions,accidental,itchy tails,generic,7,30,NA,False,zoovs
12,3871,truth_conditions,accidental,rotting shells,generic,8,10,NA,False,stups
12,6364,truth_conditions,accidental,muddy fur,generic,9,90,NA,False,sapers
12,4693,truth_conditions,accidental,infected scales,generic,10,50,NA,False,frams
12,2960,truth_conditions,accidental,muddy feathers,generic,11,30,NA,False,taifels
12,3211,truth_conditions,accidental,sore legs,generic,12,70,NA,False,glippets
12,2746,truth_conditions,accidental,infected ears,generic,13,30,NA,False,luzaks
12,2459,truth_conditions,accidental,wet feathers,generic,14,10,NA,False,ollers
12,2465,truth_conditions,accidental,swollen skin,generic,15,70,NA,False,ludinos
12,3775,truth_conditions,accidental,cracked shells,generic,16,90,NA,False,cheebas
12,6620,truth_conditions,accidental,itchy skin,generic,17,70,NA,False,kazzes
12,4516,truth_conditions,accidental,swollen ears,generic,18,50,NA,False,noobs
12,3099,truth_conditions,accidental,fungus-covered scales,generic,19,50,NA,False,dorbs
13,4719,implied_prevalence,accidental,wet feathers,generic,NA,NA,0,90,kazzes
13,3876,implied_prevalence,accidental,infected scales,generic,NA,NA,1,80,ackles
13,2752,implied_prevalence,accidental,muddy fur,generic,NA,NA,2,80,javs
13,4096,implied_prevalence,accidental,cracked claws,generic,NA,NA,3,90,mooks
13,2859,implied_prevalence,accidental,fungus-covered claws,generic,NA,NA,4,90,luzaks
13,2622,implied_prevalence,accidental,wet fur,generic,NA,NA,5,90,zorbs
13,3627,implied_prevalence,accidental,muddy feathers,generic,NA,NA,6,80,trufts
13,3317,implied_prevalence,accidental,rotting teeth,generic,NA,NA,7,80,daiths
13,3190,implied_prevalence,accidental,sore legs,generic,NA,NA,8,80,noobs
13,2896,implied_prevalence,accidental,cracked shells,generic,NA,NA,9,90,ludinos
13,3513,implied_prevalence,accidental,fungus-covered scales,generic,NA,NA,10,80,frams
13,2367,implied_prevalence,accidental,sore teeth,generic,NA,NA,11,80,plovs
13,3316,implied_prevalence,accidental,rotting shells,generic,NA,NA,12,80,stups
13,2611,implied_prevalence,accidental,swollen ears,generic,NA,NA,13,80,moxes
13,2143,implied_prevalence,accidental,broken tails,generic,NA,NA,14,90,feps
13,2571,implied_prevalence,accidental,broken legs,generic,NA,NA,15,80,lorches
13,2771,implied_prevalence,accidental,swollen skin,generic,NA,NA,16,90,dorbs
13,2927,implied_prevalence,accidental,itchy tails,generic,NA,NA,17,80,elleps
13,3285,implied_prevalence,accidental,infected ears,generic,NA,NA,18,90,taifels
13,6265,implied_prevalence,accidental,itchy skin,generic,NA,NA,19,80,krivels
14,11023,truth_conditions,accidental,wet fur,generic,0,90,NA,True,kazzes
14,7620,truth_conditions,accidental,swollen ears,generic,1,50,NA,False,sapers
14,3639,truth_conditions,accidental,itchy tails,generic,2,10,NA,False,stups
14,7864,truth_conditions,accidental,rotting teeth,generic,3,70,NA,True,mooks
14,3026,truth_conditions,accidental,swollen skin,generic,4,90,NA,True,thups
14,2222,truth_conditions,accidental,cracked claws,generic,5,30,NA,False,morseths
14,2527,truth_conditions,accidental,sore teeth,generic,6,10,NA,False,dorbs
14,4800,truth_conditions,accidental,infected scales,generic,7,50,NA,False,frams
14,4192,truth_conditions,accidental,infected ears,generic,8,70,NA,True,ludinos
14,2591,truth_conditions,accidental,fungus-covered claws,generic,9,10,NA,False,blins
14,5679,truth_conditions,accidental,muddy fur,generic,10,50,NA,True,ollers
14,4037,truth_conditions,accidental,rotting shells,generic,11,50,NA,True,glippets
14,2352,truth_conditions,accidental,broken tails,generic,12,30,NA,False,luzaks
14,2167,truth_conditions,accidental,itchy skin,generic,13,10,NA,False,taifels
14,2223,truth_conditions,accidental,broken legs,generic,14,90,NA,True,cheebas
14,1791,truth_conditions,accidental,muddy feathers,generic,15,90,NA,True,javs
14,1808,truth_conditions,accidental,fungus-covered scales,generic,16,30,NA,False,reesles
14,1943,truth_conditions,accidental,wet feathers,generic,17,70,NA,True,ackles
14,2144,truth_conditions,accidental,cracked shells,generic,18,30,NA,False,zorbs
14,1695,truth_conditions,accidental,sore legs,generic,19,70,NA,True,noobs
15,14231,truth_conditions,accidental,muddy feathers,generic,0,50,NA,False,thups
15,6194,truth_conditions,accidental,sore teeth,generic,1,70,NA,False,kazzes
15,27431,truth_conditions,accidental,broken tails,generic,2,90,NA,True,mooks
15,3941,truth_conditions,accidental,itchy tails,generic,3,10,NA,True,cheebas
15,7671,truth_conditions,accidental,rotting shells,generic,4,30,NA,True,plovs
15,7225,truth_conditions,accidental,wet fur,generic,5,10,NA,False,krivels
15,5452,truth_conditions,accidental,infected scales,generic,6,10,NA,True,zoovs
15,23004,truth_conditions,accidental,swollen ears,generic,7,50,NA,False,blins
15,5620,truth_conditions,accidental,wet feathers,generic,8,30,NA,False,frams
15,5952,truth_conditions,accidental,swollen skin,generic,9,70,NA,False,noobs
15,6203,truth_conditions,accidental,infected ears,generic,10,10,NA,True,feps
15,3927,truth_conditions,accidental,fungus-covered scales,generic,11,50,NA,False,kweps
15,4582,truth_conditions,accidental,cracked claws,generic,12,90,NA,True,trufts
15,4113,truth_conditions,accidental,broken legs,generic,13,90,NA,False,stups
15,3890,truth_conditions,accidental,fungus-covered claws,generic,14,30,NA,False,ollers
15,2521,truth_conditions,accidental,rotting teeth,generic,15,30,NA,False,lorches
15,2803,truth_conditions,accidental,cracked shells,generic,16,70,NA,False,dorbs
15,4386,truth_conditions,accidental,itchy skin,generic,17,90,NA,True,reesles
15,2841,truth_conditions,accidental,muddy fur,generic,18,70,NA,False,ludinos
15,6599,truth_conditions,accidental,sore legs,generic,19,50,NA,False,taifels
16,15003,truth_conditions,accidental,muddy fur,generic,0,30,NA,False,ludinos
16,8120,truth_conditions,accidental,infected ears,generic,1,10,NA,False,stups
16,4993,truth_conditions,accidental,wet fur,generic,2,70,NA,True,noobs
16,3659,truth_conditions,accidental,itchy skin,generic,3,50,NA,True,ollers
16,4462,truth_conditions,accidental,rotting teeth,generic,4,10,NA,False,morseths
16,3140,truth_conditions,accidental,cracked shells,generic,5,70,NA,True,plovs
16,3230,truth_conditions,accidental,swollen ears,generic,6,90,NA,True,daiths
16,4263,truth_conditions,accidental,fungus-covered scales,generic,7,50,NA,True,sapers
16,3629,truth_conditions,accidental,infected scales,generic,8,10,NA,False,trufts
16,3708,truth_conditions,accidental,itchy tails,generic,9,90,NA,True,thups
16,4539,truth_conditions,accidental,rotting shells,generic,10,30,NA,False,feps
16,2726,truth_conditions,accidental,sore teeth,generic,11,90,NA,True,frams
16,2843,truth_conditions,accidental,swollen skin,generic,12,90,NA,True,glippets
16,2213,truth_conditions,accidental,broken tails,generic,13,10,NA,False,elleps
16,2108,truth_conditions,accidental,wet feathers,generic,14,70,NA,True,ackles
16,2887,truth_conditions,accidental,muddy feathers,generic,15,70,NA,True,mooks
16,6255,truth_conditions,accidental,cracked claws,generic,16,50,NA,True,zorbs
16,10902,truth_conditions,accidental,sore legs,generic,17,50,NA,True,kazzes
16,6371,truth_conditions,accidental,broken legs,generic,18,30,NA,False,taifels
16,10570,truth_conditions,accidental,fungus-covered claws,generic,19,30,NA,False,dorbs
17,6878,implied_prevalence,accidental,wet fur,generic,NA,NA,0,100,krivels
17,6406,implied_prevalence,accidental,wet feathers,generic,NA,NA,1,100,cheebas
17,5927,implied_prevalence,accidental,sore teeth,generic,NA,NA,2,100,dorbs
17,5174,implied_prevalence,accidental,cracked shells,generic,NA,NA,3,100,moxes
17,5961,implied_prevalence,accidental,broken legs,generic,NA,NA,4,100,plovs
17,5010,implied_prevalence,accidental,fungus-covered scales,generic,NA,NA,5,100,zoovs
17,5101,implied_prevalence,accidental,itchy tails,generic,NA,NA,6,100,noobs
17,6592,implied_prevalence,accidental,infected scales,generic,NA,NA,7,100,glippets
17,8383,implied_prevalence,accidental,rotting shells,generic,NA,NA,8,100,reesles
17,4911,implied_prevalence,accidental,fungus-covered claws,generic,NA,NA,9,100,zorbs
17,5000,implied_prevalence,accidental,cracked claws,generic,NA,NA,10,100,kazzes
17,4208,implied_prevalence,accidental,broken tails,generic,NA,NA,11,100,thups
17,3322,implied_prevalence,accidental,swollen skin,generic,NA,NA,12,100,feps
17,3454,implied_prevalence,accidental,itchy skin,generic,NA,NA,13,100,blins
17,4326,implied_prevalence,accidental,infected ears,generic,NA,NA,14,100,ollers
17,3337,implied_prevalence,accidental,swollen ears,generic,NA,NA,15,100,javs
17,4952,implied_prevalence,accidental,sore legs,generic,NA,NA,16,100,stups
17,4782,implied_prevalence,accidental,muddy fur,generic,NA,NA,17,100,sapers
17,3120,implied_prevalence,accidental,rotting teeth,generic,NA,NA,18,100,elleps
17,4607,implied_prevalence,accidental,muddy feathers,generic,NA,NA,19,100,morseths
18,7265,truth_conditions,accidental,broken legs,generic,0,70,NA,False,feps
18,5436,truth_conditions,accidental,sore teeth,generic,1,50,NA,False,kweps
18,7439,truth_conditions,accidental,cracked claws,generic,2,50,NA,False,zoovs
18,6184,truth_conditions,accidental,infected scales,generic,3,30,NA,False,luzaks
18,5305,truth_conditions,accidental,rotting teeth,generic,4,30,NA,False,lorches
18,6920,truth_conditions,accidental,sore legs,generic,5,90,NA,True,reesles
18,6136,truth_conditions,accidental,fungus-covered scales,generic,6,90,NA,True,stups
18,4671,truth_conditions,accidental,fungus-covered claws,generic,7,30,NA,False,daiths
18,6769,truth_conditions,accidental,itchy skin,generic,8,10,NA,False,morseths
18,5216,truth_conditions,accidental,infected ears,generic,9,30,NA,False,trufts
18,7880,truth_conditions,accidental,muddy fur,generic,10,70,NA,True,kazzes
18,2432,truth_conditions,accidental,wet feathers,generic,11,90,NA,True,elleps
18,7256,truth_conditions,accidental,rotting shells,generic,12,70,NA,True,noobs
18,3336,truth_conditions,accidental,broken tails,generic,13,90,NA,True,moxes
18,2903,truth_conditions,accidental,swollen skin,generic,14,10,NA,False,ludinos
18,2633,truth_conditions,accidental,itchy tails,generic,15,10,NA,False,blins
18,2375,truth_conditions,accidental,wet fur,generic,16,70,NA,True,thups
18,2720,truth_conditions,accidental,swollen ears,generic,17,50,NA,False,krivels
18,3104,truth_conditions,accidental,muddy feathers,generic,18,10,NA,False,plovs
18,2920,truth_conditions,accidental,cracked shells,generic,19,50,NA,False,zorbs
19,13570,truth_conditions,accidental,wet fur,generic,0,70,NA,True,lorches
19,4931,truth_conditions,accidental,fungus-covered scales,generic,1,90,NA,True,moxes
19,4154,truth_conditions,accidental,muddy feathers,generic,2,10,NA,False,plovs
19,4233,truth_conditions,accidental,fungus-covered claws,generic,3,50,NA,False,taifels
19,2504,truth_conditions,accidental,wet feathers,generic,4,50,NA,False,zoovs
19,2277,truth_conditions,accidental,itchy skin,generic,5,30,NA,False,reesles
19,3151,truth_conditions,accidental,cracked claws,generic,6,50,NA,False,stups
19,2923,truth_conditions,accidental,sore teeth,generic,7,90,NA,True,cheebas
19,2182,truth_conditions,accidental,swollen skin,generic,8,90,NA,True,ollers
19,2637,truth_conditions,accidental,infected scales,generic,9,30,NA,False,noobs
19,2343,truth_conditions,accidental,broken tails,generic,10,10,NA,False,krivels
19,2999,truth_conditions,accidental,rotting shells,generic,11,90,NA,True,glippets
19,2281,truth_conditions,accidental,infected ears,generic,12,30,NA,False,elleps
19,3080,truth_conditions,accidental,rotting teeth,generic,13,70,NA,True,zorbs
19,2478,truth_conditions,accidental,broken legs,generic,14,70,NA,True,dorbs
19,1979,truth_conditions,accidental,itchy tails,generic,15,50,NA,False,kweps
19,3179,truth_conditions,accidental,swollen ears,generic,16,70,NA,True,javs
19,2291,truth_conditions,accidental,muddy fur,generic,17,10,NA,False,frams
19,3063,truth_conditions,accidental,cracked shells,generic,18,10,NA,False,kazzes
19,1645,truth_conditions,accidental,sore legs,generic,19,30,NA,False,trufts
20,6505,truth_conditions,accidental,fungus-covered scales,generic,0,10,NA,False,kweps
20,3005,truth_conditions,accidental,muddy fur,generic,1,70,NA,False,reesles
20,3127,truth_conditions,accidental,muddy feathers,generic,2,70,NA,False,elleps
20,2200,truth_conditions,accidental,broken tails,generic,3,90,NA,False,ollers
20,2079,truth_conditions,accidental,itchy tails,generic,4,10,NA,False,lorches
20,3191,truth_conditions,accidental,itchy skin,generic,5,70,NA,True,zoovs
20,1880,truth_conditions,accidental,sore legs,generic,6,50,NA,False,luzaks
20,4304,truth_conditions,accidental,swollen skin,generic,7,10,NA,False,kazzes
20,1384,truth_conditions,accidental,cracked shells,generic,8,30,NA,False,dorbs
20,2231,truth_conditions,accidental,rotting shells,generic,9,70,NA,True,plovs
20,1456,truth_conditions,accidental,broken legs,generic,10,50,NA,False,feps
20,1840,truth_conditions,accidental,wet fur,generic,11,90,NA,True,frams
20,1400,truth_conditions,accidental,rotting teeth,generic,12,90,NA,True,noobs
20,1144,truth_conditions,accidental,cracked claws,generic,13,50,NA,False,zorbs
20,1104,truth_conditions,accidental,wet feathers,generic,14,10,NA,False,morseths
20,952,truth_conditions,accidental,fungus-covered claws,generic,15,90,NA,True,ackles
20,1626,truth_conditions,accidental,sore teeth,generic,16,30,NA,False,stups
20,1293,truth_conditions,accidental,swollen ears,generic,17,30,NA,False,javs
20,2104,truth_conditions,accidental,infected scales,generic,18,50,NA,False,thups
20,912,truth_conditions,accidental,infected ears,generic,19,30,NA,False,blins
21,8222,implied_prevalence,accidental,cracked shells,generic,NA,NA,0,80,kweps
21,5447,implied_prevalence,accidental,swollen skin,generic,NA,NA,1,80,ludinos
21,4988,implied_prevalence,accidental,fungus-covered claws,generic,NA,NA,2,50,ollers
21,4431,implied_prevalence,accidental,muddy fur,generic,NA,NA,3,10,moxes
21,4520,implied_prevalence,accidental,cracked claws,generic,NA,NA,4,30,sapers
21,4369,implied_prevalence,accidental,itchy skin,generic,NA,NA,5,30,frams
21,6158,implied_prevalence,accidental,fungus-covered scales,generic,NA,NA,6,30,glippets
21,3724,implied_prevalence,accidental,muddy feathers,generic,NA,NA,7,30,plovs
21,3910,implied_prevalence,accidental,wet feathers,generic,NA,NA,8,80,blins
21,3837,implied_prevalence,accidental,wet fur,generic,NA,NA,9,50,cheebas
21,3706,implied_prevalence,accidental,rotting shells,generic,NA,NA,10,10,lorches
21,3886,implied_prevalence,accidental,broken legs,generic,NA,NA,11,5,trufts
21,4736,implied_prevalence,accidental,broken tails,generic,NA,NA,12,1,kazzes
21,3397,implied_prevalence,accidental,infected scales,generic,NA,NA,13,5,javs
21,3648,implied_prevalence,accidental,swollen ears,generic,NA,NA,14,25,reesles
21,3248,implied_prevalence,accidental,sore teeth,generic,NA,NA,15,1,taifels
21,3362,implied_prevalence,accidental,sore legs,generic,NA,NA,16,30,stups
21,3545,implied_prevalence,accidental,infected ears,generic,NA,NA,17,20,krivels
21,3369,implied_prevalence,accidental,itchy tails,generic,NA,NA,18,20,daiths
21,3784,implied_prevalence,accidental,rotting teeth,generic,NA,NA,19,25,zorbs
22,12366,truth_conditions,accidental,swollen ears,generic,0,30,NA,True,ackles
22,7117,truth_conditions,accidental,fungus-covered scales,generic,1,10,NA,True,stups
22,4245,truth_conditions,accidental,cracked claws,generic,2,90,NA,False,mooks
22,3773,truth_conditions,accidental,rotting shells,generic,3,50,NA,False,frams
22,8094,truth_conditions,accidental,itchy skin,generic,4,10,NA,True,taifels
22,5093,truth_conditions,accidental,broken legs,generic,5,70,NA,False,daiths
22,3067,truth_conditions,accidental,sore legs,generic,6,50,NA,False,glippets
22,3844,truth_conditions,accidental,broken tails,generic,7,10,NA,False,ollers
22,3976,truth_conditions,accidental,itchy tails,generic,8,90,NA,False,ludinos
22,8941,truth_conditions,accidental,muddy feathers,generic,9,90,NA,True,feps
22,3114,truth_conditions,accidental,muddy fur,generic,10,50,NA,True,krivels
22,3318,truth_conditions,accidental,sore teeth,generic,11,30,NA,True,lorches
22,4793,truth_conditions,accidental,infected scales,generic,12,30,NA,False,blins
22,3432,truth_conditions,accidental,wet fur,generic,13,30,NA,True,sapers
22,6315,truth_conditions,accidental,fungus-covered claws,generic,14,70,NA,False,luzaks
22,9368,truth_conditions,accidental,rotting teeth,generic,15,90,NA,False,moxes
22,4860,truth_conditions,accidental,swollen skin,generic,16,50,NA,False,kweps
22,3822,truth_conditions,accidental,infected ears,generic,17,70,NA,False,noobs
22,3728,truth_conditions,accidental,cracked shells,generic,18,10,NA,True,elleps
22,4682,truth_conditions,accidental,wet feathers,generic,19,70,NA,False,reesles
23,13542,truth_conditions,accidental,fungus-covered claws,generic,0,50,NA,True,blins
23,3635,truth_conditions,accidental,cracked shells,generic,1,10,NA,False,cheebas
23,3171,truth_conditions,accidental,sore legs,generic,2,70,NA,True,dorbs
23,3521,truth_conditions,accidental,muddy feathers,generic,3,70,NA,True,elleps
23,2073,truth_conditions,accidental,infected ears,generic,4,90,NA,True,sapers
23,2403,truth_conditions,accidental,infected scales,generic,5,70,NA,True,krivels
23,1819,truth_conditions,accidental,swollen skin,generic,6,10,NA,False,moxes
23,2303,truth_conditions,accidental,broken legs,generic,7,90,NA,True,ollers
23,6481,truth_conditions,accidental,wet fur,generic,8,50,NA,True,frams
23,1819,truth_conditions,accidental,cracked claws,generic,9,10,NA,False,zoovs
23,3280,truth_conditions,accidental,fungus-covered scales,generic,10,30,NA,False,morseths
23,1587,truth_conditions,accidental,broken tails,generic,11,90,NA,True,thups
23,2398,truth_conditions,accidental,sore teeth,generic,12,30,NA,False,trufts
23,1270,truth_conditions,accidental,wet feathers,generic,13,10,NA,False,reesles
23,1411,truth_conditions,accidental,rotting teeth,generic,14,50,NA,True,glippets
23,1526,truth_conditions,accidental,swollen ears,generic,15,50,NA,True,taifels
23,2234,truth_conditions,accidental,rotting shells,generic,16,70,NA,True,ackles
23,1379,truth_conditions,accidental,muddy fur,generic,17,30,NA,False,zorbs
23,1867,truth_conditions,accidental,itchy skin,generic,18,90,NA,True,plovs
23,1417,truth_conditions,accidental,itchy tails,generic,19,30,NA,False,daiths
24,10674,truth_conditions,accidental,muddy fur,generic,0,30,NA,False,ludinos
24,4972,truth_conditions,accidental,infected scales,generic,1,10,NA,False,thups
24,3386,truth_conditions,accidental,infected ears,generic,2,30,NA,False,glippets
24,3730,truth_conditions,accidental,fungus-covered claws,generic,3,90,NA,True,mooks
24,2846,truth_conditions,accidental,broken tails,generic,4,70,NA,True,feps
24,3289,truth_conditions,accidental,wet feathers,generic,5,10,NA,False,reesles
24,4671,truth_conditions,accidental,wet fur,generic,6,50,NA,False,blins
24,3096,truth_conditions,accidental,sore legs,generic,7,90,NA,True,noobs
24,3604,truth_conditions,accidental,rotting shells,generic,8,50,NA,False,krivels
24,2769,truth_conditions,accidental,rotting teeth,generic,9,90,NA,True,elleps
24,1859,truth_conditions,accidental,itchy skin,generic,10,10,NA,False,kazzes
24,2832,truth_conditions,accidental,swollen skin,generic,11,30,NA,False,morseths
24,2314,truth_conditions,accidental,sore teeth,generic,12,70,NA,True,cheebas
24,2236,truth_conditions,accidental,swollen ears,generic,13,90,NA,True,luzaks
24,2814,truth_conditions,accidental,itchy tails,generic,14,10,NA,False,plovs
24,1696,truth_conditions,accidental,broken legs,generic,15,30,NA,False,javs
24,1814,truth_conditions,accidental,cracked claws,generic,16,70,NA,True,lorches
24,3317,truth_conditions,accidental,muddy feathers,generic,17,70,NA,True,sapers
24,1744,truth_conditions,accidental,cracked shells,generic,18,50,NA,False,dorbs
24,2150,truth_conditions,accidental,fungus-covered scales,generic,19,50,NA,False,zorbs
25,5046,implied_prevalence,accidental,cracked shells,generic,NA,NA,0,5,glippets
25,8023,implied_prevalence,accidental,wet fur,generic,NA,NA,1,100,trufts
25,12231,implied_prevalence,accidental,itchy skin,generic,NA,NA,2,90,krivels
25,8696,implied_prevalence,accidental,itchy tails,generic,NA,NA,3,90,kazzes
25,6736,implied_prevalence,accidental,fungus-covered scales,generic,NA,NA,4,80,frams
25,4896,implied_prevalence,accidental,rotting shells,generic,NA,NA,5,75,taifels
25,6623,implied_prevalence,accidental,swollen skin,generic,NA,NA,6,90,ackles
25,5912,implied_prevalence,accidental,wet feathers,generic,NA,NA,7,50,elleps
25,10151,implied_prevalence,accidental,sore teeth,generic,NA,NA,8,50,stups
25,5601,implied_prevalence,accidental,fungus-covered claws,generic,NA,NA,9,90,plovs
25,4855,implied_prevalence,accidental,sore legs,generic,NA,NA,10,75,sapers
25,6263,implied_prevalence,accidental,broken tails,generic,NA,NA,11,0,blins
25,5184,implied_prevalence,accidental,broken legs,generic,NA,NA,12,0,moxes
25,4752,implied_prevalence,accidental,swollen ears,generic,NA,NA,13,75,morseths
25,8767,implied_prevalence,accidental,rotting teeth,generic,NA,NA,14,90,luzaks
25,4592,implied_prevalence,accidental,cracked claws,generic,NA,NA,15,90,mooks
25,4728,implied_prevalence,accidental,muddy feathers,generic,NA,NA,16,40,javs
25,5416,implied_prevalence,accidental,infected ears,generic,NA,NA,17,75,zoovs
25,5544,implied_prevalence,accidental,infected scales,generic,NA,NA,18,50,kweps
25,10542,implied_prevalence,accidental,muddy fur,generic,NA,NA,19,100,thups
26,5512,truth_conditions,accidental,itchy tails,generic,0,50,NA,True,zoovs
26,3264,truth_conditions,accidental,swollen ears,generic,1,90,NA,True,frams
26,3054,truth_conditions,accidental,muddy feathers,generic,2,30,NA,True,reesles
26,2096,truth_conditions,accidental,wet feathers,generic,3,70,NA,True,krivels
26,4655,truth_conditions,accidental,sore teeth,generic,4,10,NA,False,feps
26,3654,truth_conditions,accidental,fungus-covered scales,generic,5,10,NA,False,stups
26,2559,truth_conditions,accidental,cracked shells,generic,6,10,NA,False,daiths
26,3168,truth_conditions,accidental,cracked claws,generic,7,30,NA,True,morseths
26,2375,truth_conditions,accidental,itchy skin,generic,8,50,NA,True,sapers
26,3340,truth_conditions,accidental,infected scales,generic,9,10,NA,False,elleps
26,1947,truth_conditions,accidental,sore legs,generic,10,70,NA,True,trufts
26,1741,truth_conditions,accidental,broken tails,generic,11,50,NA,True,mooks
26,1963,truth_conditions,accidental,rotting shells,generic,12,70,NA,True,blins
26,2203,truth_conditions,accidental,rotting teeth,generic,13,90,NA,True,glippets
26,1982,truth_conditions,accidental,muddy fur,generic,14,90,NA,True,lorches
26,1391,truth_conditions,accidental,fungus-covered claws,generic,15,90,NA,True,ollers
26,1687,truth_conditions,accidental,swollen skin,generic,16,50,NA,True,moxes
26,2479,truth_conditions,accidental,broken legs,generic,17,30,NA,True,thups
26,3841,truth_conditions,accidental,infected ears,generic,18,70,NA,True,zorbs
26,3199,truth_conditions,accidental,wet fur,generic,19,30,NA,True,ludinos
27,9440,truth_conditions,accidental,sore teeth,generic,0,10,NA,False,thups
27,11790,truth_conditions,accidental,muddy feathers,generic,1,50,NA,True,morseths
27,5431,truth_conditions,accidental,sore legs,generic,2,30,NA,False,stups
27,3354,truth_conditions,accidental,itchy tails,generic,3,90,NA,True,mooks
27,4394,truth_conditions,accidental,fungus-covered scales,generic,4,70,NA,True,kweps
27,5775,truth_conditions,accidental,wet fur,generic,5,70,NA,True,lorches
27,3331,truth_conditions,accidental,cracked claws,generic,6,50,NA,True,kazzes
27,4649,truth_conditions,accidental,fungus-covered claws,generic,7,70,NA,True,zoovs
27,2988,truth_conditions,accidental,swollen ears,generic,8,90,NA,True,luzaks
27,5578,truth_conditions,accidental,rotting shells,generic,9,50,NA,True,moxes
27,3688,truth_conditions,accidental,swollen skin,generic,10,30,NA,False,plovs
27,2806,truth_conditions,accidental,cracked shells,generic,11,10,NA,False,blins
27,5287,truth_conditions,accidental,infected scales,generic,12,30,NA,False,trufts
27,2556,truth_conditions,accidental,broken legs,generic,13,90,NA,True,krivels
27,2437,truth_conditions,accidental,muddy fur,generic,14,70,NA,True,frams
27,2720,truth_conditions,accidental,infected ears,generic,15,50,NA,True,elleps
27,2496,truth_conditions,accidental,rotting teeth,generic,16,10,NA,False,javs
27,2372,truth_conditions,accidental,wet feathers,generic,17,30,NA,False,cheebas
27,2578,truth_conditions,accidental,itchy skin,generic,18,90,NA,True,ackles
27,3919,truth_conditions,accidental,broken tails,generic,19,10,NA,False,ollers
28,7426,implied_prevalence,accidental,itchy skin,generic,NA,NA,0,100,luzaks
28,8398,implied_prevalence,accidental,infected ears,generic,NA,NA,1,100,dorbs
28,4713,implied_prevalence,accidental,rotting teeth,generic,NA,NA,2,100,kweps
28,4267,implied_prevalence,accidental,swollen skin,generic,NA,NA,3,100,frams
28,5302,implied_prevalence,accidental,cracked claws,generic,NA,NA,4,100,trufts
28,5012,implied_prevalence,accidental,itchy tails,generic,NA,NA,5,100,zoovs
28,3284,implied_prevalence,accidental,wet fur,generic,NA,NA,6,100,ollers
28,3179,implied_prevalence,accidental,rotting shells,generic,NA,NA,7,100,moxes
28,2975,implied_prevalence,accidental,muddy feathers,generic,NA,NA,8,100,ludinos
28,3410,implied_prevalence,accidental,broken tails,generic,NA,NA,9,100,blins
28,55442,implied_prevalence,accidental,fungus-covered scales,generic,NA,NA,10,100,daiths
28,2701,implied_prevalence,accidental,muddy fur,generic,NA,NA,11,100,morseths
28,2761,implied_prevalence,accidental,broken legs,generic,NA,NA,12,100,cheebas
28,10135,implied_prevalence,accidental,swollen ears,generic,NA,NA,13,100,glippets
28,2507,implied_prevalence,accidental,cracked shells,generic,NA,NA,14,100,zorbs
28,2485,implied_prevalence,accidental,wet feathers,generic,NA,NA,15,100,taifels
28,3461,implied_prevalence,accidental,infected scales,generic,NA,NA,16,100,krivels
28,2457,implied_prevalence,accidental,sore legs,generic,NA,NA,17,100,feps
28,2738,implied_prevalence,accidental,fungus-covered claws,generic,NA,NA,18,100,plovs
28,2849,implied_prevalence,accidental,sore teeth,generic,NA,NA,19,100,lorches
29,11203,implied_prevalence,accidental,infected ears,generic,NA,NA,0,20,plovs
29,7943,implied_prevalence,accidental,wet fur,generic,NA,NA,1,50,feps
29,7098,implied_prevalence,accidental,swollen ears,generic,NA,NA,2,5,ackles
29,8396,implied_prevalence,accidental,rotting teeth,generic,NA,NA,3,35,zoovs
29,13462,implied_prevalence,accidental,muddy fur,generic,NA,NA,4,67,morseths
29,7130,implied_prevalence,accidental,fungus-covered claws,generic,NA,NA,5,59,noobs
29,7704,implied_prevalence,accidental,sore teeth,generic,NA,NA,6,34,reesles
29,9170,implied_prevalence,accidental,infected scales,generic,NA,NA,7,39,lorches
29,5594,implied_prevalence,accidental,wet feathers,generic,NA,NA,8,41,daiths
29,8148,implied_prevalence,accidental,itchy tails,generic,NA,NA,9,7,luzaks
29,6551,implied_prevalence,accidental,muddy feathers,generic,NA,NA,10,65,kazzes
29,8864,implied_prevalence,accidental,fungus-covered scales,generic,NA,NA,11,36,thups
29,6083,implied_prevalence,accidental,itchy skin,generic,NA,NA,12,6,glippets
29,9677,implied_prevalence,accidental,cracked claws,generic,NA,NA,13,12,kweps
29,8676,implied_prevalence,accidental,cracked shells,generic,NA,NA,14,14,elleps
29,7668,implied_prevalence,accidental,sore legs,generic,NA,NA,15,20,zorbs
29,5047,implied_prevalence,accidental,rotting shells,generic,NA,NA,16,3,taifels
29,5100,implied_prevalence,accidental,broken legs,generic,NA,NA,17,4,moxes
29,5240,implied_prevalence,accidental,broken tails,generic,NA,NA,18,1,dorbs
29,4827,implied_prevalence,accidental,swollen skin,generic,NA,NA,19,9,javs
30,9509,implied_prevalence,accidental,swollen ears,generic,NA,NA,0,45,plovs
30,5616,implied_prevalence,accidental,rotting teeth,generic,NA,NA,1,15,zorbs
30,3261,implied_prevalence,accidental,infected ears,generic,NA,NA,2,10,frams
30,2862,implied_prevalence,accidental,fungus-covered claws,generic,NA,NA,3,80,moxes
30,5290,implied_prevalence,accidental,itchy skin,generic,NA,NA,4,60,cheebas
30,4558,implied_prevalence,accidental,muddy feathers,generic,NA,NA,5,90,sapers
30,6626,implied_prevalence,accidental,fungus-covered scales,generic,NA,NA,6,90,elleps
30,3070,implied_prevalence,accidental,sore teeth,generic,NA,NA,7,10,ackles
30,3421,implied_prevalence,accidental,wet fur,generic,NA,NA,8,95,luzaks
30,5242,implied_prevalence,accidental,cracked claws,generic,NA,NA,9,63,noobs
30,4104,implied_prevalence,accidental,sore legs,generic,NA,NA,10,15,daiths
30,3532,implied_prevalence,accidental,cracked shells,generic,NA,NA,11,23,dorbs
30,3507,implied_prevalence,accidental,infected scales,generic,NA,NA,12,5,trufts
30,3354,implied_prevalence,accidental,wet feathers,generic,NA,NA,13,84,mooks
30,4026,implied_prevalence,accidental,broken tails,generic,NA,NA,14,3,lorches
30,3725,implied_prevalence,accidental,broken legs,generic,NA,NA,15,1,taifels
30,3865,implied_prevalence,accidental,muddy fur,generic,NA,NA,16,90,glippets
30,3826,implied_prevalence,accidental,rotting shells,generic,NA,NA,17,4,krivels
30,3957,implied_prevalence,accidental,swollen skin,generic,NA,NA,18,13,blins
30,3604,implied_prevalence,accidental,itchy tails,generic,NA,NA,19,12,kweps
31,36524,implied_prevalence,accidental,wet feathers,generic,NA,NA,0,50,reesles
31,11993,implied_prevalence,accidental,infected scales,generic,NA,NA,1,75,frams
31,11163,implied_prevalence,accidental,rotting shells,generic,NA,NA,2,20,krivels
31,8372,implied_prevalence,accidental,rotting teeth,generic,NA,NA,3,75,luzaks
31,14276,implied_prevalence,accidental,wet fur,generic,NA,NA,4,90,elleps
31,9124,implied_prevalence,accidental,muddy fur,generic,NA,NA,5,90,daiths
31,19954,implied_prevalence,accidental,fungus-covered scales,generic,NA,NA,6,70,noobs
31,17875,implied_prevalence,accidental,cracked claws,generic,NA,NA,7,40,sapers
31,11342,implied_prevalence,accidental,fungus-covered claws,generic,NA,NA,8,75,dorbs
31,16218,implied_prevalence,accidental,broken legs,generic,NA,NA,9,5,glippets
31,10916,implied_prevalence,accidental,cracked shells,generic,NA,NA,10,10,zorbs
31,8450,implied_prevalence,accidental,broken tails,generic,NA,NA,11,3,taifels
31,7977,implied_prevalence,accidental,swollen ears,generic,NA,NA,12,50,morseths
31,11218,implied_prevalence,accidental,muddy feathers,generic,NA,NA,13,15,stups
31,7433,implied_prevalence,accidental,itchy tails,generic,NA,NA,14,60,javs
31,6820,implied_prevalence,accidental,infected ears,generic,NA,NA,15,40,trufts
31,8604,implied_prevalence,accidental,swollen skin,generic,NA,NA,16,35,plovs
31,10055,implied_prevalence,accidental,sore legs,generic,NA,NA,17,90,kazzes
31,7114,implied_prevalence,accidental,sore teeth,generic,NA,NA,18,80,thups
31,8022,implied_prevalence,accidental,itchy skin,generic,NA,NA,19,80,lorches
32,12844,implied_prevalence,accidental,muddy feathers,generic,NA,NA,0,100,trufts
32,8871,implied_prevalence,accidental,rotting shells,generic,NA,NA,1,100,frams
32,8663,implied_prevalence,accidental,fungus-covered scales,generic,NA,NA,2,100,sapers
32,5600,implied_prevalence,accidental,cracked shells,generic,NA,NA,3,100,taifels
32,6720,implied_prevalence,accidental,infected scales,generic,NA,NA,4,100,dorbs
32,5384,implied_prevalence,accidental,swollen ears,generic,NA,NA,5,100,zoovs
32,5288,implied_prevalence,accidental,sore legs,generic,NA,NA,6,100,thups
32,4843,implied_prevalence,accidental,broken legs,generic,NA,NA,7,100,zorbs
32,5703,implied_prevalence,accidental,fungus-covered claws,generic,NA,NA,8,100,ackles
32,5782,implied_prevalence,accidental,itchy tails,generic,NA,NA,9,100,cheebas
32,6016,implied_prevalence,accidental,swollen skin,generic,NA,NA,10,100,reesles
32,5844,implied_prevalence,accidental,wet fur,generic,NA,NA,11,100,morseths
32,4156,implied_prevalence,accidental,sore teeth,generic,NA,NA,12,100,krivels
32,6110,implied_prevalence,accidental,cracked claws,generic,NA,NA,13,100,elleps
32,3828,implied_prevalence,accidental,broken tails,generic,NA,NA,14,100,feps
32,3927,implied_prevalence,accidental,infected ears,generic,NA,NA,15,100,moxes
32,3885,implied_prevalence,accidental,muddy fur,generic,NA,NA,16,100,blins
32,3812,implied_prevalence,accidental,itchy skin,generic,NA,NA,17,100,daiths
32,3891,implied_prevalence,accidental,rotting teeth,generic,NA,NA,18,100,plovs
32,3766,implied_prevalence,accidental,wet feathers,generic,NA,NA,19,100,noobs
33,15822,implied_prevalence,accidental,rotting shells,generic,NA,NA,0,99,lorches
33,4399,implied_prevalence,accidental,rotting teeth,generic,NA,NA,1,99,feps
33,7536,implied_prevalence,accidental,swollen skin,generic,NA,NA,2,99,reesles
33,4391,implied_prevalence,accidental,itchy skin,generic,NA,NA,3,99,noobs
33,7825,implied_prevalence,accidental,infected scales,generic,NA,NA,4,99,glippets
33,4200,implied_prevalence,accidental,muddy fur,generic,NA,NA,5,99,sapers
33,4488,implied_prevalence,accidental,cracked claws,generic,NA,NA,6,99,krivels
33,4743,implied_prevalence,accidental,muddy feathers,generic,NA,NA,7,99,zorbs
33,3936,implied_prevalence,accidental,sore legs,generic,NA,NA,8,99,javs
33,2688,implied_prevalence,accidental,infected ears,generic,NA,NA,9,99,cheebas
33,8471,implied_prevalence,accidental,fungus-covered scales,generic,NA,NA,10,99,dorbs
33,7929,implied_prevalence,accidental,wet feathers,generic,NA,NA,11,99,thups
33,7104,implied_prevalence,accidental,fungus-covered claws,generic,NA,NA,12,99,daiths
33,2735,implied_prevalence,accidental,wet fur,generic,NA,NA,13,99,blins
33,4769,implied_prevalence,accidental,cracked shells,generic,NA,NA,14,99,morseths
33,2287,implied_prevalence,accidental,itchy tails,generic,NA,NA,15,99,zoovs
33,4689,implied_prevalence,accidental,broken legs,generic,NA,NA,16,99,kweps
33,3303,implied_prevalence,accidental,sore teeth,generic,NA,NA,17,99,frams
33,4921,implied_prevalence,accidental,broken tails,generic,NA,NA,18,99,taifels
33,2775,implied_prevalence,accidental,swollen ears,generic,NA,NA,19,99,mooks
34,10215,implied_prevalence,accidental,broken tails,generic,NA,NA,0,80,luzaks
34,6824,implied_prevalence,accidental,muddy feathers,generic,NA,NA,1,80,morseths
34,5272,implied_prevalence,accidental,wet fur,generic,NA,NA,2,65,zoovs
34,7263,implied_prevalence,accidental,broken legs,generic,NA,NA,3,95,lorches
34,3137,implied_prevalence,accidental,swollen skin,generic,NA,NA,4,100,ollers
34,7471,implied_prevalence,accidental,sore teeth,generic,NA,NA,5,75,zorbs
34,2858,implied_prevalence,accidental,muddy fur,generic,NA,NA,6,65,sapers
34,4095,implied_prevalence,accidental,cracked claws,generic,NA,NA,7,75,ludinos
34,3696,implied_prevalence,accidental,itchy tails,generic,NA,NA,8,65,kazzes
34,4567,implied_prevalence,accidental,fungus-covered scales,generic,NA,NA,9,70,thups
34,4256,implied_prevalence,accidental,itchy skin,generic,NA,NA,10,70,daiths
34,3352,implied_prevalence,accidental,swollen ears,generic,NA,NA,11,95,mooks
34,3499,implied_prevalence,accidental,cracked shells,generic,NA,NA,12,70,reesles
34,4278,implied_prevalence,accidental,rotting teeth,generic,NA,NA,13,75,krivels
34,4360,implied_prevalence,accidental,sore legs,generic,NA,NA,14,65,plovs
34,11328,implied_prevalence,accidental,rotting shells,generic,NA,NA,15,75,trufts
34,5224,implied_prevalence,accidental,fungus-covered claws,generic,NA,NA,16,85,feps
34,3336,implied_prevalence,accidental,infected scales,generic,NA,NA,17,60,ackles
34,2984,implied_prevalence,accidental,infected ears,generic,NA,NA,18,60,noobs
34,2952,implied_prevalence,accidental,wet feathers,generic,NA,NA,19,65,javs
35,10118,truth_conditions,accidental,muddy fur,generic,0,90,NA,True,moxes
35,11892,truth_conditions,accidental,fungus-covered claws,generic,1,90,NA,True,zorbs
35,5751,truth_conditions,accidental,fungus-covered scales,generic,2,70,NA,True,thups
35,5143,truth_conditions,accidental,itchy skin,generic,3,90,NA,True,glippets
35,5168,truth_conditions,accidental,cracked claws,generic,4,70,NA,True,elleps
35,3215,truth_conditions,accidental,broken legs,generic,5,30,NA,False,dorbs
35,3104,truth_conditions,accidental,rotting shells,generic,6,30,NA,False,kweps
35,10472,truth_conditions,accidental,cracked shells,generic,7,50,NA,False,frams
35,3232,truth_conditions,accidental,muddy feathers,generic,8,50,NA,False,plovs
35,2751,truth_conditions,accidental,sore legs,generic,9,70,NA,True,ackles
35,3824,truth_conditions,accidental,rotting teeth,generic,10,10,NA,False,krivels
35,6007,truth_conditions,accidental,itchy tails,generic,11,50,NA,False,javs
35,3216,truth_conditions,accidental,sore teeth,generic,12,30,NA,False,kazzes
35,5504,truth_conditions,accidental,swollen ears,generic,13,10,NA,False,ollers
35,2432,truth_conditions,accidental,swollen skin,generic,14,10,NA,False,morseths
35,3296,truth_conditions,accidental,broken tails,generic,15,10,NA,False,stups
35,2472,truth_conditions,accidental,wet fur,generic,16,70,NA,True,ludinos
35,3240,truth_conditions,accidental,wet feathers,generic,17,50,NA,False,lorches
35,4223,truth_conditions,accidental,infected scales,generic,18,90,NA,True,trufts
35,4943,truth_conditions,accidental,infected ears,generic,19,30,NA,False,cheebas
36,30096,truth_conditions,accidental,infected ears,generic,0,10,NA,True,kweps
36,10208,truth_conditions,accidental,swollen ears,generic,1,90,NA,True,ludinos
36,11092,truth_conditions,accidental,sore teeth,generic,2,70,NA,True,frams
36,10994,truth_conditions,accidental,infected scales,generic,3,90,NA,True,morseths
36,10116,truth_conditions,accidental,cracked shells,generic,4,70,NA,True,luzaks
36,15671,truth_conditions,accidental,wet feathers,generic,5,10,NA,False,lorches
36,7037,truth_conditions,accidental,itchy skin,generic,6,50,NA,True,krivels
36,10117,truth_conditions,accidental,muddy feathers,generic,7,10,NA,False,taifels
36,11180,truth_conditions,accidental,fungus-covered claws,generic,8,50,NA,True,blins
36,15918,truth_conditions,accidental,broken tails,generic,9,30,NA,True,stups
36,6773,truth_conditions,accidental,fungus-covered scales,generic,10,70,NA,True,sapers
36,9108,truth_conditions,accidental,broken legs,generic,11,50,NA,True,kazzes
36,7084,truth_conditions,accidental,wet fur,generic,12,30,NA,False,zorbs
36,7435,truth_conditions,accidental,swollen skin,generic,13,30,NA,False,zoovs
36,6035,truth_conditions,accidental,rotting shells,generic,14,10,NA,False,trufts
36,9767,truth_conditions,accidental,muddy fur,generic,15,70,NA,True,noobs
36,6205,truth_conditions,accidental,itchy tails,generic,16,50,NA,True,elleps
36,7278,truth_conditions,accidental,rotting teeth,generic,17,90,NA,True,ollers
36,6658,truth_conditions,accidental,cracked claws,generic,18,90,NA,True,thups
36,6028,truth_conditions,accidental,sore legs,generic,19,30,NA,False,reesles
37,6053,truth_conditions,accidental,rotting teeth,generic,0,30,NA,False,zoovs
37,6803,truth_conditions,accidental,fungus-covered scales,generic,1,70,NA,False,feps
37,5831,truth_conditions,accidental,sore legs,generic,2,50,NA,False,thups
37,5096,truth_conditions,accidental,broken tails,generic,3,90,NA,True,ackles
37,3033,truth_conditions,accidental,rotting shells,generic,4,30,NA,False,javs
37,2231,truth_conditions,accidental,cracked claws,generic,5,50,NA,False,stups
37,2295,truth_conditions,accidental,itchy skin,generic,6,70,NA,False,glippets
37,2087,truth_conditions,accidental,wet feathers,generic,7,10,NA,False,kweps
37,4911,truth_conditions,accidental,infected scales,generic,8,50,NA,False,morseths
37,1928,truth_conditions,accidental,infected ears,generic,9,90,NA,True,dorbs
37,3120,truth_conditions,accidental,swollen ears,generic,10,70,NA,False,moxes
37,4195,truth_conditions,accidental,itchy tails,generic,11,10,NA,False,elleps
37,1931,truth_conditions,accidental,muddy fur,generic,12,90,NA,True,cheebas
37,4245,truth_conditions,accidental,muddy feathers,generic,13,70,NA,False,noobs
37,1611,truth_conditions,accidental,sore teeth,generic,14,30,NA,False,reesles
37,2831,truth_conditions,accidental,wet fur,generic,15,10,NA,False,krivels
37,2135,truth_conditions,accidental,broken legs,generic,16,90,NA,True,trufts
37,3232,truth_conditions,accidental,swollen skin,generic,17,30,NA,False,ludinos
37,1599,truth_conditions,accidental,cracked shells,generic,18,10,NA,False,plovs
37,4192,truth_conditions,accidental,fungus-covered claws,generic,19,50,NA,False,blins
38,5842,implied_prevalence,accidental,itchy skin,generic,NA,NA,0,90,reesles
38,5215,implied_prevalence,accidental,swollen ears,generic,NA,NA,1,80,elleps
38,3263,implied_prevalence,accidental,fungus-covered claws,generic,NA,NA,2,100,stups
38,3456,implied_prevalence,accidental,wet feathers,generic,NA,NA,3,50,ollers
38,3328,implied_prevalence,accidental,fungus-covered scales,generic,NA,NA,4,70,ackles
38,2287,implied_prevalence,accidental,sore teeth,generic,NA,NA,5,80,morseths
38,2744,implied_prevalence,accidental,cracked claws,generic,NA,NA,6,60,glippets
38,2296,implied_prevalence,accidental,broken tails,generic,NA,NA,7,70,luzaks
38,2840,implied_prevalence,accidental,muddy feathers,generic,NA,NA,8,30,noobs
38,2232,implied_prevalence,accidental,rotting teeth,generic,NA,NA,9,10,mooks
38,2030,implied_prevalence,accidental,cracked shells,generic,NA,NA,10,40,lorches
38,2782,implied_prevalence,accidental,swollen skin,generic,NA,NA,11,100,thups
38,1816,implied_prevalence,accidental,wet fur,generic,NA,NA,12,50,frams
38,2079,implied_prevalence,accidental,infected ears,generic,NA,NA,13,60,zoovs
38,2821,implied_prevalence,accidental,rotting shells,generic,NA,NA,14,40,krivels
38,2495,implied_prevalence,accidental,muddy fur,generic,NA,NA,15,10,javs
38,2440,implied_prevalence,accidental,itchy tails,generic,NA,NA,16,40,zorbs
38,2230,implied_prevalence,accidental,sore legs,generic,NA,NA,17,50,taifels
38,2514,implied_prevalence,accidental,broken legs,generic,NA,NA,18,10,moxes
38,2195,implied_prevalence,accidental,infected scales,generic,NA,NA,19,40,trufts
39,5530,truth_conditions,accidental,sore teeth,generic,0,50,NA,False,sapers
39,2703,truth_conditions,accidental,wet fur,generic,1,50,NA,False,lorches
39,2757,truth_conditions,accidental,sore legs,generic,2,30,NA,False,morseths
39,3655,truth_conditions,accidental,infected scales,generic,3,30,NA,False,daiths
39,1603,truth_conditions,accidental,muddy feathers,generic,4,50,NA,False,moxes
39,1889,truth_conditions,accidental,fungus-covered claws,generic,5,70,NA,False,mooks
39,1534,truth_conditions,accidental,swollen ears,generic,6,10,NA,False,blins
39,1912,truth_conditions,accidental,cracked shells,generic,7,90,NA,False,dorbs
39,2506,truth_conditions,accidental,broken tails,generic,8,90,NA,False,glippets
39,1830,truth_conditions,accidental,infected ears,generic,9,50,NA,False,kazzes
39,1956,truth_conditions,accidental,fungus-covered scales,generic,10,70,NA,False,taifels
39,2574,truth_conditions,accidental,wet feathers,generic,11,90,NA,False,noobs
39,1989,truth_conditions,accidental,swollen skin,generic,12,10,NA,False,zorbs
39,1561,truth_conditions,accidental,cracked claws,generic,13,30,NA,False,javs
39,2674,truth_conditions,accidental,muddy fur,generic,14,10,NA,False,cheebas
39,1444,truth_conditions,accidental,itchy tails,generic,15,70,NA,False,thups
39,2306,truth_conditions,accidental,itchy skin,generic,16,70,NA,False,feps
39,2198,truth_conditions,accidental,broken legs,generic,17,90,NA,False,reesles
39,2191,truth_conditions,accidental,rotting shells,generic,18,30,NA,False,krivels
39,1485,truth_conditions,accidental,rotting teeth,generic,19,10,NA,False,elleps
40,34933,truth_conditions,accidental,infected ears,generic,0,50,NA,False,ollers
40,18471,truth_conditions,accidental,broken tails,generic,1,50,NA,False,luzaks
40,11623,truth_conditions,accidental,rotting shells,generic,2,90,NA,False,mooks
40,13281,truth_conditions,accidental,infected scales,generic,3,90,NA,False,reesles
40,15125,truth_conditions,accidental,fungus-covered scales,generic,4,50,NA,False,krivels
40,8032,truth_conditions,accidental,itchy skin,generic,5,30,NA,False,thups
40,9631,truth_conditions,accidental,rotting teeth,generic,6,30,NA,False,lorches
40,14686,truth_conditions,accidental,muddy feathers,generic,7,70,NA,False,feps
40,45125,truth_conditions,accidental,cracked claws,generic,8,70,NA,False,sapers
40,7157,truth_conditions,accidental,wet feathers,generic,9,10,NA,False,glippets
40,7852,truth_conditions,accidental,wet fur,generic,10,50,NA,False,cheebas
40,3539,truth_conditions,accidental,itchy tails,generic,11,10,NA,False,zoovs
40,5528,truth_conditions,accidental,cracked shells,generic,12,90,NA,False,moxes
40,3864,truth_conditions,accidental,fungus-covered claws,generic,13,10,NA,False,javs
40,2907,truth_conditions,accidental,muddy fur,generic,14,90,NA,False,dorbs
40,2571,truth_conditions,accidental,swollen ears,generic,15,70,NA,False,daiths
40,8113,truth_conditions,accidental,sore legs,generic,16,30,NA,False,kazzes
40,9282,truth_conditions,accidental,sore teeth,generic,17,30,NA,False,elleps
40,17935,truth_conditions,accidental,swollen skin,generic,18,10,NA,False,frams
40,13006,truth_conditions,accidental,broken legs,generic,19,70,NA,False,stups
41,6634,truth_conditions,accidental,rotting shells,generic,0,90,NA,True,lorches
41,5869,truth_conditions,accidental,cracked claws,generic,1,30,NA,False,zorbs
41,5778,truth_conditions,accidental,rotting teeth,generic,2,70,NA,True,elleps
41,3848,truth_conditions,accidental,swollen ears,generic,3,10,NA,True,blins
41,5356,truth_conditions,accidental,broken legs,generic,4,10,NA,False,reesles
41,11982,truth_conditions,accidental,muddy fur,generic,5,90,NA,True,frams
41,4819,truth_conditions,accidental,broken tails,generic,6,50,NA,True,ludinos
41,3137,truth_conditions,accidental,infected ears,generic,7,30,NA,False,luzaks
41,3176,truth_conditions,accidental,sore legs,generic,8,10,NA,False,plovs
41,3452,truth_conditions,accidental,wet feathers,generic,9,50,NA,True,dorbs
41,4996,truth_conditions,accidental,sore teeth,generic,10,70,NA,True,noobs
41,4581,truth_conditions,accidental,infected scales,generic,11,50,NA,True,krivels
41,4350,truth_conditions,accidental,swollen skin,generic,12,90,NA,True,moxes
41,4145,truth_conditions,accidental,itchy tails,generic,13,10,NA,False,taifels
41,3051,truth_conditions,accidental,fungus-covered scales,generic,14,50,NA,True,mooks
41,3039,truth_conditions,accidental,muddy feathers,generic,15,30,NA,False,stups
41,3435,truth_conditions,accidental,itchy skin,generic,16,90,NA,True,sapers
41,2843,truth_conditions,accidental,cracked shells,generic,17,70,NA,True,thups
41,13039,truth_conditions,accidental,wet fur,generic,18,30,NA,False,trufts
41,3510,truth_conditions,accidental,fungus-covered claws,generic,19,70,NA,True,kazzes
42,7499,truth_conditions,accidental,broken legs,generic,0,10,NA,True,thups
42,3836,truth_conditions,accidental,rotting shells,generic,1,50,NA,False,reesles
42,3048,truth_conditions,accidental,muddy feathers,generic,2,70,NA,True,elleps
42,3543,truth_conditions,accidental,itchy skin,generic,3,90,NA,False,lorches
42,4096,truth_conditions,accidental,sore legs,generic,4,90,NA,False,frams
42,2998,truth_conditions,accidental,broken tails,generic,5,30,NA,True,ackles
42,4536,truth_conditions,accidental,fungus-covered claws,generic,6,10,NA,True,zoovs
42,5231,truth_conditions,accidental,itchy tails,generic,7,10,NA,True,sapers
42,3271,truth_conditions,accidental,infected scales,generic,8,70,NA,False,trufts
42,3423,truth_conditions,accidental,swollen skin,generic,9,30,NA,False,glippets
42,3639,truth_conditions,accidental,muddy fur,generic,10,50,NA,False,moxes
42,3823,truth_conditions,accidental,swollen ears,generic,11,90,NA,True,luzaks
42,3296,truth_conditions,accidental,wet fur,generic,12,50,NA,False,javs
42,4128,truth_conditions,accidental,fungus-covered scales,generic,13,70,NA,False,dorbs
42,3729,truth_conditions,accidental,cracked shells,generic,14,30,NA,True,noobs
42,2686,truth_conditions,accidental,infected ears,generic,15,90,NA,False,cheebas
42,3143,truth_conditions,accidental,sore teeth,generic,16,70,NA,False,stups
42,2728,truth_conditions,accidental,wet feathers,generic,17,50,NA,True,taifels
42,2768,truth_conditions,accidental,cracked claws,generic,18,30,NA,True,kazzes
42,3416,truth_conditions,accidental,rotting teeth,generic,19,10,NA,True,ollers
43,6524,implied_prevalence,accidental,muddy fur,generic,NA,NA,0,90,kazzes
43,3549,implied_prevalence,accidental,infected scales,generic,NA,NA,1,90,zoovs
43,2508,implied_prevalence,accidental,sore legs,generic,NA,NA,2,90,mooks
43,2711,implied_prevalence,accidental,swollen ears,generic,NA,NA,3,90,noobs
43,2673,implied_prevalence,accidental,muddy feathers,generic,NA,NA,4,90,feps
43,3107,implied_prevalence,accidental,cracked claws,generic,NA,NA,5,90,trufts
43,2643,implied_prevalence,accidental,fungus-covered claws,generic,NA,NA,6,90,javs
43,3145,implied_prevalence,accidental,itchy skin,generic,NA,NA,7,90,stups
43,2189,implied_prevalence,accidental,rotting teeth,generic,NA,NA,8,90,dorbs
43,3064,implied_prevalence,accidental,fungus-covered scales,generic,NA,NA,9,90,ackles
43,4169,implied_prevalence,accidental,broken tails,generic,NA,NA,10,90,zorbs
43,2303,implied_prevalence,accidental,infected ears,generic,NA,NA,11,90,glippets
43,2640,implied_prevalence,accidental,itchy tails,generic,NA,NA,12,90,plovs
43,2648,implied_prevalence,accidental,wet fur,generic,NA,NA,13,90,blins
43,2223,implied_prevalence,accidental,wet feathers,generic,NA,NA,14,90,morseths
43,3015,implied_prevalence,accidental,cracked shells,generic,NA,NA,15,90,elleps
43,2207,implied_prevalence,accidental,sore teeth,generic,NA,NA,16,90,ludinos
43,2222,implied_prevalence,accidental,broken legs,generic,NA,NA,17,90,ollers
43,3754,implied_prevalence,accidental,rotting shells,generic,NA,NA,18,90,krivels
43,2407,implied_prevalence,accidental,swollen skin,generic,NA,NA,19,90,moxes
44,12902,truth_conditions,accidental,sore legs,generic,0,70,NA,True,trufts
44,4875,truth_conditions,accidental,rotting shells,generic,1,70,NA,True,kazzes
44,4422,truth_conditions,accidental,fungus-covered scales,generic,2,50,NA,True,dorbs
44,4773,truth_conditions,accidental,fungus-covered claws,generic,3,90,NA,True,reesles
44,5117,truth_conditions,accidental,wet fur,generic,4,10,NA,False,stups
44,4448,truth_conditions,accidental,rotting teeth,generic,5,30,NA,False,mooks
44,2621,truth_conditions,accidental,muddy feathers,generic,6,50,NA,True,plovs
44,4534,truth_conditions,accidental,broken legs,generic,7,30,NA,False,feps
44,2316,truth_conditions,accidental,cracked shells,generic,8,50,NA,True,lorches
44,3072,truth_conditions,accidental,cracked claws,generic,9,30,NA,False,thups
44,3272,truth_conditions,accidental,muddy fur,generic,10,90,NA,True,sapers
44,2757,truth_conditions,accidental,sore teeth,generic,11,30,NA,False,luzaks
44,2100,truth_conditions,accidental,swollen skin,generic,12,90,NA,True,zorbs
44,2700,truth_conditions,accidental,wet feathers,generic,13,10,NA,False,morseths
44,2566,truth_conditions,accidental,broken tails,generic,14,50,NA,True,glippets
44,2560,truth_conditions,accidental,infected scales,generic,15,10,NA,False,frams
44,2393,truth_conditions,accidental,swollen ears,generic,16,70,NA,True,daiths
44,4930,truth_conditions,accidental,itchy tails,generic,17,10,NA,False,elleps
44,2057,truth_conditions,accidental,infected ears,generic,18,70,NA,True,ackles
44,3370,truth_conditions,accidental,itchy skin,generic,19,90,NA,True,ollers
45,6060,implied_prevalence,accidental,muddy fur,generic,NA,NA,0,85,luzaks
45,4994,implied_prevalence,accidental,rotting shells,generic,NA,NA,1,85,daiths
45,5557,implied_prevalence,accidental,cracked claws,generic,NA,NA,2,45,lorches
45,4456,implied_prevalence,accidental,muddy feathers,generic,NA,NA,3,85,moxes
45,5248,implied_prevalence,accidental,sore teeth,generic,NA,NA,4,45,frams
45,6488,implied_prevalence,accidental,fungus-covered scales,generic,NA,NA,5,85,blins
45,4945,implied_prevalence,accidental,infected scales,generic,NA,NA,6,45,glippets
45,4895,implied_prevalence,accidental,itchy tails,generic,NA,NA,7,85,plovs
45,4880,implied_prevalence,accidental,cracked shells,generic,NA,NA,8,45,taifels
45,6039,implied_prevalence,accidental,wet fur,generic,NA,NA,9,95,morseths
45,3488,implied_prevalence,accidental,wet feathers,generic,NA,NA,10,95,krivels
45,4326,implied_prevalence,accidental,sore legs,generic,NA,NA,11,65,elleps
45,3976,implied_prevalence,accidental,infected ears,generic,NA,NA,12,45,zorbs
45,3672,implied_prevalence,accidental,swollen skin,generic,NA,NA,13,85,javs
45,3871,implied_prevalence,accidental,fungus-covered claws,generic,NA,NA,14,45,sapers
45,4001,implied_prevalence,accidental,swollen ears,generic,NA,NA,15,65,kazzes
45,4656,implied_prevalence,accidental,broken legs,generic,NA,NA,16,35,stups
45,3446,implied_prevalence,accidental,itchy skin,generic,NA,NA,17,85,reesles
45,4001,implied_prevalence,accidental,broken tails,generic,NA,NA,18,65,feps
45,3871,implied_prevalence,accidental,rotting teeth,generic,NA,NA,19,65,ackles
46,23150,truth_conditions,accidental,swollen ears,generic,0,50,NA,True,glippets
46,8250,truth_conditions,accidental,broken tails,generic,1,70,NA,True,trufts
46,20127,truth_conditions,accidental,muddy feathers,generic,2,50,NA,False,kazzes
46,3593,truth_conditions,accidental,swollen skin,generic,3,90,NA,True,mooks
46,5495,truth_conditions,accidental,itchy skin,generic,4,90,NA,True,plovs
46,3048,truth_conditions,accidental,wet fur,generic,5,10,NA,False,krivels
46,5999,truth_conditions,accidental,itchy tails,generic,6,70,NA,True,stups
46,4618,truth_conditions,accidental,broken legs,generic,7,30,NA,False,sapers
46,4900,truth_conditions,accidental,fungus-covered claws,generic,8,30,NA,False,noobs
46,6682,truth_conditions,accidental,fungus-covered scales,generic,9,50,NA,True,feps
46,3595,truth_conditions,accidental,muddy fur,generic,10,70,NA,True,elleps
46,4342,truth_conditions,accidental,rotting shells,generic,11,90,NA,True,blins
46,8327,truth_conditions,accidental,cracked shells,generic,12,90,NA,True,ludinos
46,6320,truth_conditions,accidental,sore legs,generic,13,30,NA,False,ackles
46,3384,truth_conditions,accidental,rotting teeth,generic,14,10,NA,False,reesles
46,6551,truth_conditions,accidental,cracked claws,generic,15,30,NA,False,kweps
46,3344,truth_conditions,accidental,infected scales,generic,16,10,NA,False,taifels
46,5120,truth_conditions,accidental,wet feathers,generic,17,50,NA,False,morseths
46,3736,truth_conditions,accidental,sore teeth,generic,18,10,NA,False,daiths
46,3416,truth_conditions,accidental,infected ears,generic,19,70,NA,True,dorbs
47,8148,implied_prevalence,accidental,cracked claws,generic,NA,NA,0,100,morseths
47,4531,implied_prevalence,accidental,muddy feathers,generic,NA,NA,1,100,ludinos
47,4881,implied_prevalence,accidental,fungus-covered claws,generic,NA,NA,2,100,kazzes
47,3913,implied_prevalence,accidental,itchy skin,generic,NA,NA,3,100,noobs
47,4327,implied_prevalence,accidental,infected scales,generic,NA,NA,4,100,zorbs
47,4186,implied_prevalence,accidental,sore teeth,generic,NA,NA,5,100,zoovs
47,4475,implied_prevalence,accidental,rotting shells,generic,NA,NA,6,100,kweps
47,6233,implied_prevalence,accidental,muddy fur,generic,NA,NA,7,100,moxes
47,4126,implied_prevalence,accidental,broken tails,generic,NA,NA,8,100,plovs
47,4342,implied_prevalence,accidental,itchy tails,generic,NA,NA,9,100,ollers
47,3728,implied_prevalence,accidental,wet fur,generic,NA,NA,10,100,taifels
47,3556,implied_prevalence,accidental,swollen skin,generic,NA,NA,11,100,thups
47,3490,implied_prevalence,accidental,sore legs,generic,NA,NA,12,100,feps
47,3602,implied_prevalence,accidental,infected ears,generic,NA,NA,13,100,cheebas
47,3554,implied_prevalence,accidental,rotting teeth,generic,NA,NA,14,100,krivels
47,4313,implied_prevalence,accidental,wet feathers,generic,NA,NA,15,100,ackles
47,8748,implied_prevalence,accidental,broken legs,generic,NA,NA,16,100,blins
47,3623,implied_prevalence,accidental,cracked shells,generic,NA,NA,17,100,glippets
47,3446,implied_prevalence,accidental,fungus-covered scales,generic,NA,NA,18,100,sapers
47,2791,implied_prevalence,accidental,swollen ears,generic,NA,NA,19,100,stups
48,2415,truth_conditions,accidental,broken tails,generic,0,90,NA,True,reesles
48,1737,truth_conditions,accidental,fungus-covered scales,generic,1,70,NA,True,ollers
48,2972,truth_conditions,accidental,sore teeth,generic,2,50,NA,False,ackles
48,2003,truth_conditions,accidental,swollen skin,generic,3,30,NA,True,kazzes
48,2103,truth_conditions,accidental,rotting shells,generic,4,70,NA,False,taifels
48,1859,truth_conditions,accidental,cracked shells,generic,5,10,NA,False,ludinos
48,1851,truth_conditions,accidental,wet feathers,generic,6,50,NA,True,plovs
48,1700,truth_conditions,accidental,infected ears,generic,7,30,NA,False,daiths
48,1854,truth_conditions,accidental,fungus-covered claws,generic,8,30,NA,True,kweps
48,1907,truth_conditions,accidental,sore legs,generic,9,90,NA,True,mooks
48,2068,truth_conditions,accidental,swollen ears,generic,10,10,NA,True,cheebas
48,2222,truth_conditions,accidental,broken legs,generic,11,10,NA,True,luzaks
48,1836,truth_conditions,accidental,cracked claws,generic,12,90,NA,False,elleps
48,49893,truth_conditions,accidental,muddy feathers,generic,13,70,NA,True,krivels
48,13142,truth_conditions,accidental,itchy tails,generic,14,90,NA,True,feps
48,2555,truth_conditions,accidental,muddy fur,generic,15,70,NA,False,sapers
48,2519,truth_conditions,accidental,rotting teeth,generic,16,50,NA,True,noobs
48,2107,truth_conditions,accidental,itchy skin,generic,17,30,NA,True,blins
48,2386,truth_conditions,accidental,infected scales,generic,18,50,NA,True,thups
48,17148,truth_conditions,accidental,wet fur,generic,19,10,NA,True,lorches
49,8031,truth_conditions,accidental,swollen ears,generic,0,10,NA,True,glippets
49,5019,truth_conditions,accidental,cracked shells,generic,1,50,NA,False,krivels
49,2959,truth_conditions,accidental,fungus-covered claws,generic,2,30,NA,False,blins
49,2527,truth_conditions,accidental,itchy skin,generic,3,30,NA,True,mooks
49,1961,truth_conditions,accidental,rotting shells,generic,4,70,NA,False,moxes
49,1976,truth_conditions,accidental,broken tails,generic,5,30,NA,True,lorches
49,2024,truth_conditions,accidental,muddy feathers,generic,6,90,NA,True,elleps
49,2490,truth_conditions,accidental,rotting teeth,generic,7,70,NA,False,reesles
49,2009,truth_conditions,accidental,sore teeth,generic,8,50,NA,False,taifels
49,2137,truth_conditions,accidental,cracked claws,generic,9,30,NA,True,trufts
49,1440,truth_conditions,accidental,wet feathers,generic,10,10,NA,True,zoovs
49,2914,truth_conditions,accidental,itchy tails,generic,11,90,NA,False,noobs
49,5428,truth_conditions,accidental,sore legs,generic,12,70,NA,False,daiths
49,1585,truth_conditions,accidental,muddy fur,generic,13,10,NA,True,luzaks
49,1386,truth_conditions,accidental,infected ears,generic,14,10,NA,True,kweps
49,1913,truth_conditions,accidental,wet fur,generic,15,50,NA,True,feps
49,2284,truth_conditions,accidental,infected scales,generic,16,90,NA,False,plovs
49,2788,truth_conditions,accidental,fungus-covered scales,generic,17,90,NA,False,morseths
49,2210,truth_conditions,accidental,swollen skin,generic,18,50,NA,False,thups
49,1843,truth_conditions,accidental,broken legs,generic,19,70,NA,False,stups
50,13464,truth_conditions,accidental,rotting teeth,generic,0,70,NA,True,stups
50,6643,truth_conditions,accidental,rotting shells,generic,1,30,NA,False,morseths
50,10072,truth_conditions,accidental,wet feathers,generic,2,30,NA,False,ollers
50,5369,truth_conditions,accidental,swollen skin,generic,3,30,NA,False,ludinos
50,4415,truth_conditions,accidental,swollen ears,generic,4,90,NA,True,krivels
50,7064,truth_conditions,accidental,wet fur,generic,5,30,NA,False,kweps
50,4167,truth_conditions,accidental,infected ears,generic,6,90,NA,True,glippets
50,5251,truth_conditions,accidental,cracked shells,generic,7,10,NA,False,blins
50,4446,truth_conditions,accidental,broken legs,generic,8,10,NA,False,taifels
50,2646,truth_conditions,accidental,muddy fur,generic,9,90,NA,True,ackles
50,6401,truth_conditions,accidental,fungus-covered scales,generic,10,50,NA,True,thups
50,2432,truth_conditions,accidental,sore legs,generic,11,50,NA,True,kazzes
50,2431,truth_conditions,accidental,itchy skin,generic,12,70,NA,True,plovs
50,2775,truth_conditions,accidental,broken tails,generic,13,90,NA,True,mooks
50,2592,truth_conditions,accidental,cracked claws,generic,14,70,NA,True,cheebas
50,2576,truth_conditions,accidental,muddy feathers,generic,15,10,NA,False,feps
50,2151,truth_conditions,accidental,itchy tails,generic,16,50,NA,True,noobs
50,2680,truth_conditions,accidental,sore teeth,generic,17,10,NA,False,frams
50,3079,truth_conditions,accidental,fungus-covered claws,generic,18,50,NA,True,reesles
50,3183,truth_conditions,accidental,infected scales,generic,19,70,NA,True,luzaks
51,8602,truth_conditions,accidental,sore teeth,generic,0,30,NA,True,blins
51,6252,truth_conditions,accidental,fungus-covered claws,generic,1,30,NA,True,luzaks
51,4141,truth_conditions,accidental,itchy skin,generic,2,90,NA,True,plovs
51,5479,truth_conditions,accidental,sore legs,generic,3,70,NA,True,noobs
51,2959,truth_conditions,accidental,rotting teeth,generic,4,30,NA,False,zorbs
51,1647,truth_conditions,accidental,infected ears,generic,5,30,NA,False,reesles
51,3165,truth_conditions,accidental,infected scales,generic,6,90,NA,True,trufts
51,2240,truth_conditions,accidental,swollen ears,generic,7,70,NA,True,thups
51,4327,truth_conditions,accidental,cracked claws,generic,8,50,NA,True,morseths
51,12414,truth_conditions,accidental,wet fur,generic,9,50,NA,True,cheebas
51,3001,truth_conditions,accidental,fungus-covered scales,generic,10,10,NA,False,moxes
51,1880,truth_conditions,accidental,wet feathers,generic,11,50,NA,True,mooks
51,3384,truth_conditions,accidental,broken tails,generic,12,10,NA,False,sapers
51,2626,truth_conditions,accidental,itchy tails,generic,13,90,NA,True,glippets
51,2949,truth_conditions,accidental,rotting shells,generic,14,70,NA,True,dorbs
51,2927,truth_conditions,accidental,cracked shells,generic,15,10,NA,False,elleps
51,3017,truth_conditions,accidental,muddy feathers,generic,16,90,NA,True,ollers
51,2967,truth_conditions,accidental,swollen skin,generic,17,70,NA,True,kweps
51,1882,truth_conditions,accidental,muddy fur,generic,18,10,NA,False,frams
51,1773,truth_conditions,accidental,broken legs,generic,19,50,NA,True,stups
52,5706,truth_conditions,accidental,infected scales,generic,0,70,NA,True,ludinos
52,6317,truth_conditions,accidental,wet feathers,generic,1,30,NA,True,javs
52,15868,truth_conditions,accidental,broken legs,generic,2,50,NA,True,taifels
52,7712,truth_conditions,accidental,infected ears,generic,3,10,NA,True,feps
52,5058,truth_conditions,accidental,rotting shells,generic,4,70,NA,True,sapers
52,4631,truth_conditions,accidental,swollen skin,generic,5,30,NA,True,trufts
52,2590,truth_conditions,accidental,itchy skin,generic,6,10,NA,True,kweps
52,3870,truth_conditions,accidental,wet fur,generic,7,90,NA,True,moxes
52,3565,truth_conditions,accidental,muddy fur,generic,8,90,NA,True,reesles
52,2131,truth_conditions,accidental,swollen ears,generic,9,90,NA,True,dorbs
52,2680,truth_conditions,accidental,fungus-covered claws,generic,10,90,NA,True,ackles
52,3828,truth_conditions,accidental,sore teeth,generic,11,70,NA,True,stups
52,5474,truth_conditions,accidental,broken tails,generic,12,10,NA,True,noobs
52,4876,truth_conditions,accidental,cracked shells,generic,13,30,NA,True,ollers
52,3713,truth_conditions,accidental,muddy feathers,generic,14,50,NA,True,elleps
52,2385,truth_conditions,accidental,sore legs,generic,15,70,NA,True,glippets
52,1849,truth_conditions,accidental,itchy tails,generic,16,10,NA,True,blins
52,6355,truth_conditions,accidental,rotting teeth,generic,17,50,NA,True,zoovs
52,5179,truth_conditions,accidental,cracked claws,generic,18,30,NA,True,daiths
52,2693,truth_conditions,accidental,fungus-covered scales,generic,19,50,NA,True,lorches
53,9524,truth_conditions,accidental,broken tails,generic,0,70,NA,False,cheebas
53,5231,truth_conditions,accidental,muddy feathers,generic,1,50,NA,False,glippets
53,4038,truth_conditions,accidental,sore legs,generic,2,70,NA,True,ludinos
53,4368,truth_conditions,accidental,muddy fur,generic,3,50,NA,False,elleps
53,2343,truth_conditions,accidental,infected ears,generic,4,30,NA,True,lorches
53,7944,truth_conditions,accidental,fungus-covered claws,generic,5,50,NA,True,zoovs
53,12297,truth_conditions,accidental,swollen ears,generic,6,10,NA,False,morseths
53,4487,truth_conditions,accidental,itchy skin,generic,7,10,NA,False,zorbs
53,5023,truth_conditions,accidental,infected scales,generic,8,90,NA,True,noobs
53,2871,truth_conditions,accidental,swollen skin,generic,9,90,NA,True,luzaks
53,4328,truth_conditions,accidental,itchy tails,generic,10,70,NA,True,plovs
53,2352,truth_conditions,accidental,wet fur,generic,11,30,NA,True,feps
53,1152,truth_conditions,accidental,rotting shells,generic,12,30,NA,True,stups
53,2407,truth_conditions,accidental,fungus-covered scales,generic,13,90,NA,True,krivels
53,3080,truth_conditions,accidental,wet feathers,generic,14,50,NA,True,ollers
53,2776,truth_conditions,accidental,sore teeth,generic,15,70,NA,True,dorbs
53,1784,truth_conditions,accidental,cracked shells,generic,16,90,NA,True,blins
53,2143,truth_conditions,accidental,rotting teeth,generic,17,10,NA,False,kazzes
53,1864,truth_conditions,accidental,broken legs,generic,18,30,NA,True,trufts
53,3368,truth_conditions,accidental,cracked claws,generic,19,10,NA,False,ackles
54,11657,truth_conditions,accidental,itchy tails,generic,0,50,NA,True,zorbs
54,6055,truth_conditions,accidental,cracked claws,generic,1,70,NA,True,thups
54,5200,truth_conditions,accidental,wet feathers,generic,2,90,NA,True,dorbs
54,4208,truth_conditions,accidental,swollen skin,generic,3,90,NA,True,luzaks
54,5377,truth_conditions,accidental,fungus-covered scales,generic,4,30,NA,False,moxes
54,4686,truth_conditions,accidental,wet fur,generic,5,10,NA,False,ollers
54,4745,truth_conditions,accidental,infected scales,generic,6,30,NA,False,trufts
54,2968,truth_conditions,accidental,muddy fur,generic,7,10,NA,False,taifels
54,3224,truth_conditions,accidental,swollen ears,generic,8,50,NA,True,ludinos
54,2768,truth_conditions,accidental,sore teeth,generic,9,50,NA,True,mooks
54,4265,truth_conditions,accidental,rotting shells,generic,10,10,NA,False,morseths
54,2614,truth_conditions,accidental,broken legs,generic,11,10,NA,False,plovs
54,3376,truth_conditions,accidental,fungus-covered claws,generic,12,30,NA,False,lorches
54,4201,truth_conditions,accidental,rotting teeth,generic,13,30,NA,False,zoovs
54,2887,truth_conditions,accidental,muddy feathers,generic,14,70,NA,True,blins
54,3624,truth_conditions,accidental,infected ears,generic,15,90,NA,True,daiths
54,2952,truth_conditions,accidental,broken tails,generic,16,70,NA,True,kweps
54,2983,truth_conditions,accidental,itchy skin,generic,17,90,NA,True,javs
54,2824,truth_conditions,accidental,cracked shells,generic,18,70,NA,True,noobs
54,3088,truth_conditions,accidental,sore legs,generic,19,50,NA,True,krivels
55,9607,implied_prevalence,accidental,muddy fur,generic,NA,NA,0,30,taifels
55,6029,implied_prevalence,accidental,itchy skin,generic,NA,NA,1,80,ludinos
55,18184,implied_prevalence,accidental,itchy tails,generic,NA,NA,2,90,blins
55,7071,implied_prevalence,accidental,cracked shells,generic,NA,NA,3,85,elleps
55,5919,implied_prevalence,accidental,fungus-covered scales,generic,NA,NA,4,75,moxes
55,5192,implied_prevalence,accidental,broken legs,generic,NA,NA,5,20,daiths
55,4480,implied_prevalence,accidental,infected ears,generic,NA,NA,6,65,luzaks
55,5278,implied_prevalence,accidental,broken tails,generic,NA,NA,7,90,mooks
55,4609,implied_prevalence,accidental,muddy feathers,generic,NA,NA,8,50,morseths
55,4545,implied_prevalence,accidental,sore legs,generic,NA,NA,9,65,cheebas
55,3103,implied_prevalence,accidental,fungus-covered claws,generic,NA,NA,10,80,ollers
55,3919,implied_prevalence,accidental,rotting teeth,generic,NA,NA,11,40,zoovs
55,4096,implied_prevalence,accidental,cracked claws,generic,NA,NA,12,80,ackles
55,3695,implied_prevalence,accidental,wet fur,generic,NA,NA,13,95,thups
55,2721,implied_prevalence,accidental,wet feathers,generic,NA,NA,14,90,frams
55,2880,implied_prevalence,accidental,swollen skin,generic,NA,NA,15,75,trufts
55,2952,implied_prevalence,accidental,rotting shells,generic,NA,NA,16,70,lorches
55,3215,implied_prevalence,accidental,sore teeth,generic,NA,NA,17,80,glippets
55,3255,implied_prevalence,accidental,swollen ears,generic,NA,NA,18,85,plovs
55,3759,implied_prevalence,accidental,infected scales,generic,NA,NA,19,88,stups
56,10797,truth_conditions,accidental,itchy skin,generic,0,50,NA,False,krivels
56,4286,truth_conditions,accidental,broken legs,generic,1,90,NA,True,feps
56,4205,truth_conditions,accidental,cracked shells,generic,2,30,NA,False,dorbs
56,4374,truth_conditions,accidental,infected scales,generic,3,70,NA,True,elleps
56,3370,truth_conditions,accidental,broken tails,generic,4,30,NA,False,trufts
56,2689,truth_conditions,accidental,sore legs,generic,5,10,NA,False,daiths
56,2793,truth_conditions,accidental,sore teeth,generic,6,70,NA,True,reesles
56,2414,truth_conditions,accidental,wet feathers,generic,7,50,NA,False,mooks
56,2628,truth_conditions,accidental,itchy tails,generic,8,30,NA,False,taifels
56,4547,truth_conditions,accidental,muddy feathers,generic,9,30,NA,False,moxes
56,2824,truth_conditions,accidental,swollen ears,generic,10,90,NA,True,morseths
56,2988,truth_conditions,accidental,rotting shells,generic,11,90,NA,True,glippets
56,2913,truth_conditions,accidental,wet fur,generic,12,10,NA,False,ludinos
56,2172,truth_conditions,accidental,rotting teeth,generic,13,10,NA,False,zoovs
56,2786,truth_conditions,accidental,muddy fur,generic,14,10,NA,False,frams
56,2671,truth_conditions,accidental,fungus-covered scales,generic,15,50,NA,False,noobs
56,2097,truth_conditions,accidental,infected ears,generic,16,90,NA,True,kweps
56,2461,truth_conditions,accidental,swollen skin,generic,17,70,NA,True,ollers
56,2351,truth_conditions,accidental,cracked claws,generic,18,70,NA,True,kazzes
56,1989,truth_conditions,accidental,fungus-covered claws,generic,19,50,NA,False,sapers
57,9841,truth_conditions,accidental,cracked shells,generic,0,10,NA,True,morseths
57,5809,truth_conditions,accidental,rotting teeth,generic,1,50,NA,True,mooks
57,5426,truth_conditions,accidental,swollen skin,generic,2,90,NA,True,kweps
57,5950,truth_conditions,accidental,itchy tails,generic,3,50,NA,True,stups
57,7063,truth_conditions,accidental,broken tails,generic,4,30,NA,True,glippets
57,3595,truth_conditions,accidental,itchy skin,generic,5,10,NA,True,cheebas
57,4693,truth_conditions,accidental,sore legs,generic,6,10,NA,True,blins
57,9659,truth_conditions,accidental,broken legs,generic,7,30,NA,True,sapers
57,4187,truth_conditions,accidental,sore teeth,generic,8,10,NA,True,moxes
57,4748,truth_conditions,accidental,swollen ears,generic,9,90,NA,True,zoovs
57,3771,truth_conditions,accidental,wet fur,generic,10,70,NA,True,kazzes
57,4238,truth_conditions,accidental,fungus-covered scales,generic,11,70,NA,True,feps
57,4013,truth_conditions,accidental,muddy feathers,generic,12,70,NA,True,ackles
57,5074,truth_conditions,accidental,infected ears,generic,13,50,NA,True,frams
57,4106,truth_conditions,accidental,cracked claws,generic,14,70,NA,True,lorches
57,4532,truth_conditions,accidental,muddy fur,generic,15,30,NA,True,ollers
57,4179,truth_conditions,accidental,fungus-covered claws,generic,16,30,NA,True,krivels
57,3717,truth_conditions,accidental,wet feathers,generic,17,90,NA,True,trufts
57,3532,truth_conditions,accidental,rotting shells,generic,18,50,NA,True,reesles
57,3831,truth_conditions,accidental,infected scales,generic,19,90,NA,True,noobs
58,6251,truth_conditions,accidental,sore legs,generic,0,50,NA,True,trufts
58,4008,truth_conditions,accidental,sore teeth,generic,1,50,NA,True,elleps
58,3866,truth_conditions,accidental,fungus-covered scales,generic,2,90,NA,True,plovs
58,2905,truth_conditions,accidental,broken tails,generic,3,90,NA,True,blins
58,2710,truth_conditions,accidental,rotting teeth,generic,4,70,NA,True,ludinos
58,2509,truth_conditions,accidental,cracked claws,generic,5,90,NA,True,zorbs
58,3675,truth_conditions,accidental,fungus-covered claws,generic,6,30,NA,False,taifels
58,2794,truth_conditions,accidental,cracked shells,generic,7,70,NA,True,feps
58,2427,truth_conditions,accidental,wet fur,generic,8,10,NA,False,mooks
58,2397,truth_conditions,accidental,muddy feathers,generic,9,10,NA,False,thups
58,2671,truth_conditions,accidental,broken legs,generic,10,10,NA,False,lorches
58,3358,truth_conditions,accidental,itchy tails,generic,11,90,NA,True,noobs
58,2314,truth_conditions,accidental,itchy skin,generic,12,10,NA,False,daiths
58,2340,truth_conditions,accidental,muddy fur,generic,13,50,NA,True,dorbs
58,2202,truth_conditions,accidental,rotting shells,generic,14,50,NA,True,ollers
58,2086,truth_conditions,accidental,infected ears,generic,15,70,NA,True,cheebas
58,2042,truth_conditions,accidental,wet feathers,generic,16,30,NA,False,krivels
58,1913,truth_conditions,accidental,infected scales,generic,17,70,NA,True,reesles
58,1949,truth_conditions,accidental,swollen ears,generic,18,30,NA,False,kweps
58,2952,truth_conditions,accidental,swollen skin,generic,19,30,NA,False,glippets
59,16813,implied_prevalence,accidental,infected scales,generic,NA,NA,0,100,glippets
59,8702,implied_prevalence,accidental,itchy tails,generic,NA,NA,1,100,feps
59,9129,implied_prevalence,accidental,swollen ears,generic,NA,NA,2,100,krivels
59,5779,implied_prevalence,accidental,broken legs,generic,NA,NA,3,100,kazzes
59,5566,implied_prevalence,accidental,sore legs,generic,NA,NA,4,100,frams
59,11420,implied_prevalence,accidental,sore teeth,generic,NA,NA,5,90,moxes
59,6472,implied_prevalence,accidental,rotting teeth,generic,NA,NA,6,90,ludinos
59,6602,implied_prevalence,accidental,itchy skin,generic,NA,NA,7,90,zorbs
59,6407,implied_prevalence,accidental,swollen skin,generic,NA,NA,8,90,kweps
59,5793,implied_prevalence,accidental,muddy feathers,generic,NA,NA,9,95,blins
59,6328,implied_prevalence,accidental,muddy fur,generic,NA,NA,10,95,taifels
59,6649,implied_prevalence,accidental,broken tails,generic,NA,NA,11,95,ollers
59,7008,implied_prevalence,accidental,fungus-covered claws,generic,NA,NA,12,95,daiths
59,5829,implied_prevalence,accidental,wet feathers,generic,NA,NA,13,95,morseths
59,4436,implied_prevalence,accidental,rotting shells,generic,NA,NA,14,95,cheebas
59,10047,implied_prevalence,accidental,fungus-covered scales,generic,NA,NA,15,95,luzaks
59,4595,implied_prevalence,accidental,cracked claws,generic,NA,NA,16,95,plovs
59,5712,implied_prevalence,accidental,infected ears,generic,NA,NA,17,95,noobs
59,4472,implied_prevalence,accidental,wet fur,generic,NA,NA,18,98,thups
59,6294,implied_prevalence,accidental,cracked shells,generic,NA,NA,19,98,sapers
60,6516,implied_prevalence,accidental,cracked shells,generic,NA,NA,0,100,krivels
60,3301,implied_prevalence,accidental,itchy skin,generic,NA,NA,1,100,cheebas
60,5455,implied_prevalence,accidental,itchy tails,generic,NA,NA,2,100,javs
60,2471,implied_prevalence,accidental,muddy fur,generic,NA,NA,3,100,ludinos
60,4597,implied_prevalence,accidental,wet fur,generic,NA,NA,4,99,lorches
60,4277,implied_prevalence,accidental,rotting shells,generic,NA,NA,5,99,plovs
60,3522,implied_prevalence,accidental,wet feathers,generic,NA,NA,6,99,kweps
60,2112,implied_prevalence,accidental,broken legs,generic,NA,NA,7,99,dorbs
60,1486,implied_prevalence,accidental,broken tails,generic,NA,NA,8,99,reesles
60,1870,implied_prevalence,accidental,sore legs,generic,NA,NA,9,99,trufts
60,1830,implied_prevalence,accidental,cracked claws,generic,NA,NA,10,99,glippets
60,2433,implied_prevalence,accidental,fungus-covered claws,generic,NA,NA,11,99,thups
60,1517,implied_prevalence,accidental,swollen ears,generic,NA,NA,12,99,blins
60,3411,implied_prevalence,accidental,swollen skin,generic,NA,NA,13,99,stups
60,1806,implied_prevalence,accidental,fungus-covered scales,generic,NA,NA,14,99,sapers
60,2797,implied_prevalence,accidental,infected scales,generic,NA,NA,15,99,daiths
60,1692,implied_prevalence,accidental,muddy feathers,generic,NA,NA,16,99,zoovs
60,2288,implied_prevalence,accidental,sore teeth,generic,NA,NA,17,99,mooks
60,1837,implied_prevalence,accidental,rotting teeth,generic,NA,NA,18,99,luzaks
60,1621,implied_prevalence,accidental,infected ears,generic,NA,NA,19,99,feps
61,3520,truth_conditions,accidental,wet fur,generic,0,50,NA,False,blins
61,3175,truth_conditions,accidental,cracked claws,generic,1,30,NA,True,zoovs
61,2578,truth_conditions,accidental,sore legs,generic,2,10,NA,True,frams
61,3133,truth_conditions,accidental,fungus-covered scales,generic,3,50,NA,True,cheebas
61,1853,truth_conditions,accidental,cracked shells,generic,4,10,NA,False,moxes
61,2458,truth_conditions,accidental,swollen skin,generic,5,70,NA,True,plovs
61,2118,truth_conditions,accidental,fungus-covered claws,generic,6,90,NA,False,taifels
61,2692,truth_conditions,accidental,sore teeth,generic,7,70,NA,True,ackles
61,1601,truth_conditions,accidental,broken tails,generic,8,90,NA,True,kazzes
61,1370,truth_conditions,accidental,swollen ears,generic,9,10,NA,False,luzaks
61,1996,truth_conditions,accidental,broken legs,generic,10,50,NA,True,ollers
61,34244,truth_conditions,accidental,wet feathers,generic,11,30,NA,False,ludinos
61,4965,truth_conditions,accidental,muddy fur,generic,12,30,NA,False,krivels
61,25330,truth_conditions,accidental,infected ears,generic,13,10,NA,False,daiths
61,1586,truth_conditions,accidental,infected scales,generic,14,70,NA,True,reesles
61,6700,truth_conditions,accidental,muddy feathers,generic,15,90,NA,True,noobs
61,1592,truth_conditions,accidental,rotting teeth,generic,16,70,NA,True,morseths
61,1368,truth_conditions,accidental,itchy tails,generic,17,50,NA,False,trufts
61,940,truth_conditions,accidental,itchy skin,generic,18,90,NA,True,javs
61,1039,truth_conditions,accidental,rotting shells,generic,19,30,NA,False,elleps
62,9045,truth_conditions,accidental,wet feathers,generic,0,70,NA,True,glippets
62,3321,truth_conditions,accidental,cracked claws,generic,1,10,NA,False,zorbs
62,6831,truth_conditions,accidental,fungus-covered scales,generic,2,30,NA,True,stups
62,3957,truth_conditions,accidental,sore legs,generic,3,50,NA,True,taifels
62,4658,truth_conditions,accidental,swollen skin,generic,4,10,NA,True,daiths
62,2605,truth_conditions,accidental,itchy skin,generic,5,50,NA,True,trufts
62,4235,truth_conditions,accidental,swollen ears,generic,6,30,NA,True,thups
62,2215,truth_conditions,accidental,rotting shells,generic,7,30,NA,True,blins
62,1866,truth_conditions,accidental,broken legs,generic,8,90,NA,True,elleps
62,1971,truth_conditions,accidental,muddy feathers,generic,9,70,NA,True,frams
62,1557,truth_conditions,accidental,wet fur,generic,10,90,NA,True,plovs
62,2116,truth_conditions,accidental,itchy tails,generic,11,50,NA,True,luzaks
62,4066,truth_conditions,accidental,infected ears,generic,12,10,NA,True,ackles
62,2895,truth_conditions,accidental,fungus-covered claws,generic,13,70,NA,True,lorches
62,3525,truth_conditions,accidental,muddy fur,generic,14,10,NA,True,reesles
62,4045,truth_conditions,accidental,sore teeth,generic,15,90,NA,True,sapers
62,1894,truth_conditions,accidental,broken tails,generic,16,70,NA,True,moxes
62,2474,truth_conditions,accidental,infected scales,generic,17,30,NA,True,noobs
62,1816,truth_conditions,accidental,rotting teeth,generic,18,90,NA,True,morseths
62,1910,truth_conditions,accidental,cracked shells,generic,19,50,NA,True,kweps
