workerid,rt,trial_type,stim_type,stim_part,stim_determiner,trialNum,stim_color,stim_prevalence,response,stim_category
0,12403,truth_conditions,bare,scales,generic,0,red,55,False,blins
0,13049,truth_conditions,nondistinctive,stripes,generic,1,silver,5,False,frams
0,8791,truth_conditions,danger-distinct,spots,generic,2,copper,5,False,glippets
0,5566,truth_conditions,nondistinctive,ears,generic,3,pink,15,False,elleps
0,5672,truth_conditions,danger-distinct,ears,generic,4,blue,45,False,cheebas
0,5055,truth_conditions,bare,legs,generic,5,yellow,95,False,ludinos
0,4601,truth_conditions,bare,shells,generic,6,orange,15,False,luzaks
0,5727,truth_conditions,danger-distinct,shells,generic,7,purple,85,False,javs
0,5078,truth_conditions,bare,feathers,generic,8,purple,25,False,lorches
0,4440,truth_conditions,danger-distinct,scales,generic,9,blue,15,False,reesles
0,3908,truth_conditions,bare,teeth,generic,10,blue,85,False,thups
0,4667,truth_conditions,danger-distinct,tails,generic,11,green,95,False,trufts
0,4213,truth_conditions,danger-distinct,fur,generic,12,silver,65,False,morseths
0,4175,truth_conditions,nondistinctive,fur,generic,13,copper,65,False,kweps
0,3359,truth_conditions,bare,stripes,generic,14,copper,35,False,mooks
0,4102,truth_conditions,nondistinctive,tails,generic,15,orange,35,False,zorbs
0,3840,truth_conditions,bare,ears,generic,16,orange,5,False,kazzes
0,4823,truth_conditions,danger-distinct,stripes,generic,17,gold,55,False,daiths
0,4536,truth_conditions,nondistinctive,teeth,generic,18,green,45,False,zoovs
0,4637,truth_conditions,nondistinctive,spots,generic,19,gold,95,False,stups
0,4702,truth_conditions,danger-distinct,feathers,generic,20,red,25,False,noobs
0,4080,truth_conditions,bare,fur,generic,21,yellow,75,False,ollers
0,5470,truth_conditions,nondistinctive,legs,generic,22,silver,55,False,ackles
0,3433,truth_conditions,bare,spots,generic,23,red,65,False,sapers
0,4034,truth_conditions,danger-distinct,teeth,generic,24,pink,35,False,krivels
0,3927,truth_conditions,nondistinctive,shells,generic,25,green,85,False,moxes
0,4331,truth_conditions,danger-distinct,legs,generic,26,pink,75,False,feps
0,4982,truth_conditions,nondistinctive,feathers,generic,27,gold,75,False,plovs
0,5290,truth_conditions,nondistinctive,scales,generic,28,yellow,25,False,dorbs
0,4209,truth_conditions,bare,tails,generic,29,purple,45,False,taifels
1,9680,truth_conditions,bare,stripes,generic,0,copper,5,True,mooks
1,6723,truth_conditions,danger-distinct,shells,generic,1,green,45,True,moxes
1,14285,truth_conditions,bare,scales,generic,2,red,45,True,blins
1,4508,truth_conditions,nondistinctive,tails,generic,3,purple,85,True,taifels
1,1712,truth_conditions,bare,spots,generic,4,red,65,True,sapers
1,2157,truth_conditions,danger-distinct,legs,generic,5,yellow,95,True,ludinos
1,2174,truth_conditions,nondistinctive,scales,generic,6,yellow,15,True,dorbs
1,2348,truth_conditions,nondistinctive,spots,generic,7,gold,55,True,stups
1,2866,truth_conditions,nondistinctive,stripes,generic,8,gold,5,True,daiths
1,2126,truth_conditions,danger-distinct,teeth,generic,9,pink,25,True,krivels
1,2048,truth_conditions,nondistinctive,teeth,generic,10,blue,65,True,thups
1,1559,truth_conditions,nondistinctive,legs,generic,11,pink,45,True,feps
1,2439,truth_conditions,bare,fur,generic,12,yellow,55,True,ollers
1,2401,truth_conditions,nondistinctive,feathers,generic,13,purple,95,True,lorches
1,1702,truth_conditions,bare,ears,generic,14,pink,15,True,elleps
1,2414,truth_conditions,danger-distinct,tails,generic,15,orange,75,True,zorbs
1,1553,truth_conditions,nondistinctive,ears,generic,16,blue,75,True,cheebas
1,958,truth_conditions,nondistinctive,shells,generic,17,purple,35,True,javs
1,1751,truth_conditions,danger-distinct,fur,generic,18,copper,5,True,kweps
1,1311,truth_conditions,bare,legs,generic,19,silver,85,True,ackles
1,2622,truth_conditions,danger-distinct,feathers,generic,20,gold,15,True,plovs
1,2688,truth_conditions,bare,tails,generic,21,green,35,True,trufts
1,1174,truth_conditions,bare,teeth,generic,22,green,25,True,zoovs
1,3583,truth_conditions,danger-distinct,stripes,generic,23,silver,55,True,frams
1,1857,truth_conditions,nondistinctive,fur,generic,24,silver,25,True,morseths
1,1590,truth_conditions,danger-distinct,ears,generic,25,orange,85,True,kazzes
1,2279,truth_conditions,bare,feathers,generic,26,red,95,True,noobs
1,5878,truth_conditions,danger-distinct,scales,generic,27,blue,65,True,reesles
1,1128,truth_conditions,bare,shells,generic,28,orange,75,True,luzaks
1,1407,truth_conditions,danger-distinct,spots,generic,29,copper,35,False,glippets
2,20061,truth_conditions,nondistinctive,scales,generic,0,yellow,25,True,dorbs
2,10101,truth_conditions,bare,shells,generic,1,purple,85,False,javs
2,54480,truth_conditions,danger-distinct,stripes,generic,2,silver,15,True,frams
2,8891,truth_conditions,bare,scales,generic,3,blue,45,True,reesles
2,5890,truth_conditions,bare,legs,generic,4,silver,55,False,ackles
2,16560,truth_conditions,danger-distinct,scales,generic,5,red,25,True,blins
2,10320,truth_conditions,bare,fur,generic,6,silver,65,True,morseths
2,50358,truth_conditions,danger-distinct,legs,generic,7,yellow,5,True,ludinos
2,13535,truth_conditions,nondistinctive,teeth,generic,8,pink,65,False,krivels
2,26847,truth_conditions,nondistinctive,ears,generic,9,orange,15,True,kazzes
2,10947,truth_conditions,nondistinctive,spots,generic,10,gold,85,True,stups
2,62784,truth_conditions,bare,teeth,generic,11,green,75,False,zoovs
2,11478,truth_conditions,danger-distinct,feathers,generic,12,purple,95,True,lorches
2,7607,truth_conditions,bare,feathers,generic,13,red,35,True,noobs
2,8637,truth_conditions,bare,ears,generic,14,pink,5,False,elleps
2,7499,truth_conditions,bare,stripes,generic,15,copper,95,True,mooks
2,9010,truth_conditions,nondistinctive,shells,generic,16,green,95,True,moxes
2,4686,truth_conditions,bare,spots,generic,17,copper,25,True,glippets
2,7635,truth_conditions,nondistinctive,feathers,generic,18,gold,5,True,plovs
2,9436,truth_conditions,nondistinctive,tails,generic,19,purple,45,False,taifels
2,12112,truth_conditions,danger-distinct,shells,generic,20,orange,35,False,luzaks
2,14799,truth_conditions,danger-distinct,spots,generic,21,red,45,False,sapers
2,9006,truth_conditions,danger-distinct,tails,generic,22,green,75,False,trufts
2,7488,truth_conditions,danger-distinct,fur,generic,23,copper,55,True,kweps
2,10254,truth_conditions,nondistinctive,fur,generic,24,yellow,55,True,ollers
2,7357,truth_conditions,danger-distinct,teeth,generic,25,blue,85,False,thups
2,13250,truth_conditions,nondistinctive,legs,generic,26,pink,75,True,feps
2,7531,truth_conditions,nondistinctive,stripes,generic,27,gold,35,True,daiths
2,4799,truth_conditions,bare,tails,generic,28,orange,15,True,zorbs
2,21027,truth_conditions,danger-distinct,ears,generic,29,blue,65,True,cheebas
3,13945,truth_conditions,nondistinctive,feathers,generic,0,gold,55,True,plovs
3,6762,truth_conditions,nondistinctive,tails,generic,1,orange,85,True,zorbs
3,6135,truth_conditions,bare,shells,generic,2,green,15,True,moxes
3,5424,truth_conditions,danger-distinct,legs,generic,3,silver,5,True,ackles
3,4721,truth_conditions,nondistinctive,teeth,generic,4,blue,35,True,thups
3,4254,truth_conditions,bare,stripes,generic,5,silver,65,True,frams
3,4198,truth_conditions,bare,spots,generic,6,gold,5,True,stups
3,3929,truth_conditions,nondistinctive,scales,generic,7,red,45,True,blins
3,5439,truth_conditions,nondistinctive,spots,generic,8,red,95,True,sapers
3,3705,truth_conditions,danger-distinct,teeth,generic,9,green,75,True,zoovs
3,2974,truth_conditions,danger-distinct,scales,generic,10,yellow,65,True,dorbs
3,3864,truth_conditions,nondistinctive,stripes,generic,11,copper,65,True,mooks
3,3656,truth_conditions,danger-distinct,ears,generic,12,pink,55,True,elleps
3,3391,truth_conditions,danger-distinct,spots,generic,13,copper,15,True,glippets
3,4439,truth_conditions,bare,legs,generic,14,yellow,55,True,ludinos
3,2535,truth_conditions,bare,ears,generic,15,blue,35,True,cheebas
3,4224,truth_conditions,danger-distinct,feathers,generic,16,purple,45,True,lorches
3,3310,truth_conditions,nondistinctive,shells,generic,17,purple,15,True,javs
3,3873,truth_conditions,nondistinctive,legs,generic,18,pink,5,True,feps
3,2920,truth_conditions,nondistinctive,ears,generic,19,orange,25,True,kazzes
3,4062,truth_conditions,bare,feathers,generic,20,red,25,True,noobs
3,2640,truth_conditions,bare,tails,generic,21,green,85,True,trufts
3,4669,truth_conditions,danger-distinct,tails,generic,22,purple,85,True,taifels
3,4208,truth_conditions,nondistinctive,fur,generic,23,silver,75,True,morseths
3,3137,truth_conditions,danger-distinct,stripes,generic,24,gold,25,True,daiths
3,3040,truth_conditions,danger-distinct,shells,generic,25,orange,35,True,luzaks
3,3031,truth_conditions,bare,teeth,generic,26,pink,45,True,krivels
3,2824,truth_conditions,danger-distinct,fur,generic,27,copper,95,True,kweps
3,3263,truth_conditions,bare,scales,generic,28,blue,95,True,reesles
3,3823,truth_conditions,bare,fur,generic,29,yellow,75,True,ollers
4,19086,truth_conditions,nondistinctive,fur,generic,0,yellow,65,True,ollers
4,4839,truth_conditions,bare,teeth,generic,1,blue,25,True,thups
4,9927,truth_conditions,nondistinctive,shells,generic,2,purple,95,True,javs
4,13983,truth_conditions,danger-distinct,scales,generic,3,blue,65,True,reesles
4,5183,truth_conditions,bare,tails,generic,4,green,15,False,trufts
4,3208,truth_conditions,bare,spots,generic,5,gold,85,True,stups
4,2531,truth_conditions,bare,feathers,generic,6,gold,75,True,plovs
4,8196,truth_conditions,nondistinctive,spots,generic,7,red,25,False,sapers
4,5864,truth_conditions,nondistinctive,ears,generic,8,blue,55,True,cheebas
4,5232,truth_conditions,nondistinctive,teeth,generic,9,pink,5,False,krivels
4,58656,truth_conditions,nondistinctive,tails,generic,10,orange,15,False,zorbs
4,6864,truth_conditions,danger-distinct,fur,generic,11,silver,85,True,morseths
4,5719,truth_conditions,bare,ears,generic,12,pink,55,True,elleps
4,9144,truth_conditions,nondistinctive,stripes,generic,13,gold,85,True,daiths
4,9142,truth_conditions,danger-distinct,teeth,generic,14,green,25,False,zoovs
4,13496,truth_conditions,bare,legs,generic,15,yellow,35,False,ludinos
4,8279,truth_conditions,danger-distinct,tails,generic,16,purple,95,True,taifels
4,3232,truth_conditions,nondistinctive,legs,generic,17,silver,35,False,ackles
4,2911,truth_conditions,nondistinctive,scales,generic,18,yellow,45,False,dorbs
4,3456,truth_conditions,nondistinctive,feathers,generic,19,red,75,True,noobs
4,2687,truth_conditions,bare,stripes,generic,20,copper,5,False,mooks
4,2111,truth_conditions,bare,scales,generic,21,red,65,True,blins
4,6280,truth_conditions,danger-distinct,spots,generic,22,copper,35,False,glippets
4,1767,truth_conditions,bare,shells,generic,23,green,45,False,moxes
4,2273,truth_conditions,danger-distinct,shells,generic,24,orange,15,False,luzaks
4,3432,truth_conditions,danger-distinct,feathers,generic,25,purple,55,True,lorches
4,6023,truth_conditions,danger-distinct,legs,generic,26,pink,45,False,feps
4,3144,truth_conditions,danger-distinct,stripes,generic,27,silver,5,False,frams
4,3135,truth_conditions,danger-distinct,ears,generic,28,orange,75,True,kazzes
4,3776,truth_conditions,bare,fur,generic,29,copper,95,True,kweps
5,9010,truth_conditions,bare,shells,generic,0,purple,15,False,javs
5,4602,truth_conditions,bare,teeth,generic,1,pink,5,False,krivels
5,3470,truth_conditions,bare,ears,generic,2,blue,75,True,cheebas
5,8763,truth_conditions,danger-distinct,feathers,generic,3,gold,5,True,plovs
5,3296,truth_conditions,danger-distinct,teeth,generic,4,blue,45,True,thups
5,5101,truth_conditions,danger-distinct,shells,generic,5,green,35,True,moxes
5,4090,truth_conditions,danger-distinct,ears,generic,6,orange,95,True,kazzes
5,3924,truth_conditions,bare,legs,generic,7,silver,85,True,ackles
5,3177,truth_conditions,danger-distinct,tails,generic,8,green,55,True,trufts
5,3210,truth_conditions,bare,spots,generic,9,red,35,False,sapers
5,5769,truth_conditions,nondistinctive,scales,generic,10,yellow,15,False,dorbs
5,4098,truth_conditions,nondistinctive,stripes,generic,11,gold,5,False,daiths
5,3615,truth_conditions,bare,stripes,generic,12,silver,55,True,frams
5,2172,truth_conditions,bare,fur,generic,13,yellow,25,False,ollers
5,2925,truth_conditions,danger-distinct,scales,generic,14,red,15,True,blins
5,4670,truth_conditions,bare,tails,generic,15,orange,45,True,zorbs
5,2522,truth_conditions,bare,feathers,generic,16,red,65,True,noobs
5,4805,truth_conditions,nondistinctive,fur,generic,17,silver,55,True,morseths
5,3018,truth_conditions,nondistinctive,ears,generic,18,pink,35,False,elleps
5,3092,truth_conditions,danger-distinct,stripes,generic,19,copper,65,True,mooks
5,3076,truth_conditions,nondistinctive,teeth,generic,20,green,25,False,zoovs
5,2433,truth_conditions,nondistinctive,spots,generic,21,copper,75,True,glippets
5,2144,truth_conditions,nondistinctive,shells,generic,22,orange,85,True,luzaks
5,2346,truth_conditions,bare,scales,generic,23,blue,95,True,reesles
5,2330,truth_conditions,nondistinctive,feathers,generic,24,purple,45,True,lorches
5,3722,truth_conditions,nondistinctive,legs,generic,25,yellow,65,True,ludinos
5,7293,truth_conditions,danger-distinct,legs,generic,26,pink,25,True,feps
5,2077,truth_conditions,danger-distinct,fur,generic,27,copper,85,True,kweps
5,3107,truth_conditions,danger-distinct,spots,generic,28,gold,75,True,stups
5,6210,truth_conditions,nondistinctive,tails,generic,29,purple,95,True,taifels
6,29396,truth_conditions,danger-distinct,ears,generic,0,blue,25,False,cheebas
6,8211,truth_conditions,nondistinctive,spots,generic,1,red,25,False,sapers
6,12319,truth_conditions,danger-distinct,feathers,generic,2,red,95,True,noobs
6,5136,truth_conditions,nondistinctive,fur,generic,3,silver,55,True,morseths
6,3736,truth_conditions,nondistinctive,stripes,generic,4,gold,95,True,daiths
6,3240,truth_conditions,danger-distinct,legs,generic,5,yellow,45,False,ludinos
6,3585,truth_conditions,bare,legs,generic,6,pink,85,True,feps
6,3432,truth_conditions,danger-distinct,teeth,generic,7,blue,65,True,thups
6,4879,truth_conditions,nondistinctive,feathers,generic,8,gold,15,False,plovs
6,4520,truth_conditions,danger-distinct,fur,generic,9,copper,75,True,kweps
6,2040,truth_conditions,bare,ears,generic,10,pink,45,False,elleps
6,3066,truth_conditions,bare,teeth,generic,11,green,55,True,zoovs
6,2894,truth_conditions,danger-distinct,shells,generic,12,green,85,True,moxes
6,2312,truth_conditions,bare,shells,generic,13,purple,95,True,javs
6,1344,truth_conditions,bare,feathers,generic,14,purple,15,False,lorches
6,2008,truth_conditions,nondistinctive,ears,generic,15,orange,45,False,kazzes
6,1608,truth_conditions,danger-distinct,scales,generic,16,red,35,False,blins
6,1592,truth_conditions,bare,spots,generic,17,copper,5,False,glippets
6,1480,truth_conditions,danger-distinct,tails,generic,18,purple,15,False,taifels
6,2297,truth_conditions,nondistinctive,tails,generic,19,orange,65,True,zorbs
6,1503,truth_conditions,bare,scales,generic,20,blue,25,False,reesles
6,1305,truth_conditions,bare,stripes,generic,21,copper,35,False,mooks
6,2839,truth_conditions,danger-distinct,stripes,generic,22,silver,55,True,frams
6,1640,truth_conditions,bare,tails,generic,23,green,65,True,trufts
6,1865,truth_conditions,nondistinctive,legs,generic,24,silver,85,True,ackles
6,2072,truth_conditions,nondistinctive,teeth,generic,25,pink,75,True,krivels
6,2832,truth_conditions,nondistinctive,shells,generic,26,orange,5,False,luzaks
6,1871,truth_conditions,bare,fur,generic,27,yellow,75,True,ollers
6,3457,truth_conditions,danger-distinct,spots,generic,28,gold,5,False,stups
6,1615,truth_conditions,nondistinctive,scales,generic,29,yellow,35,False,dorbs
7,15239,truth_conditions,nondistinctive,shells,generic,0,green,35,True,moxes
7,7385,truth_conditions,bare,spots,generic,1,gold,35,True,stups
7,3569,truth_conditions,bare,legs,generic,2,silver,65,True,ackles
7,10503,truth_conditions,bare,ears,generic,3,orange,5,True,kazzes
7,6613,truth_conditions,nondistinctive,stripes,generic,4,copper,5,False,mooks
7,4096,truth_conditions,nondistinctive,teeth,generic,5,green,45,True,zoovs
7,4637,truth_conditions,nondistinctive,feathers,generic,6,purple,25,False,lorches
7,1966,truth_conditions,danger-distinct,shells,generic,7,orange,5,False,luzaks
7,3482,truth_conditions,nondistinctive,legs,generic,8,yellow,65,True,ludinos
7,3850,truth_conditions,danger-distinct,stripes,generic,9,silver,55,True,frams
7,3812,truth_conditions,nondistinctive,ears,generic,10,blue,85,True,cheebas
7,3945,truth_conditions,danger-distinct,fur,generic,11,yellow,15,False,ollers
7,2014,truth_conditions,danger-distinct,legs,generic,12,pink,75,True,feps
7,4055,truth_conditions,bare,shells,generic,13,purple,95,True,javs
7,5159,truth_conditions,danger-distinct,feathers,generic,14,gold,25,True,plovs
7,2564,truth_conditions,danger-distinct,tails,generic,15,orange,65,True,zorbs
7,3315,truth_conditions,bare,teeth,generic,16,pink,85,True,krivels
7,3830,truth_conditions,bare,feathers,generic,17,red,25,False,noobs
7,3192,truth_conditions,bare,scales,generic,18,yellow,45,True,dorbs
7,4158,truth_conditions,nondistinctive,spots,generic,19,red,95,True,sapers
7,2586,truth_conditions,danger-distinct,teeth,generic,20,blue,95,True,thups
7,6780,truth_conditions,danger-distinct,spots,generic,21,copper,45,True,glippets
7,3999,truth_conditions,bare,stripes,generic,22,gold,55,True,daiths
7,2862,truth_conditions,bare,fur,generic,23,copper,15,False,kweps
7,3380,truth_conditions,danger-distinct,scales,generic,24,blue,35,True,reesles
7,3034,truth_conditions,nondistinctive,scales,generic,25,red,15,False,blins
7,3193,truth_conditions,danger-distinct,ears,generic,26,pink,85,True,elleps
7,2271,truth_conditions,nondistinctive,tails,generic,27,purple,75,True,taifels
7,1895,truth_conditions,bare,tails,generic,28,green,75,True,trufts
7,3350,truth_conditions,nondistinctive,fur,generic,29,silver,55,True,morseths
8,6366,truth_conditions,bare,fur,generic,0,copper,85,False,kweps
8,9224,truth_conditions,nondistinctive,shells,generic,1,purple,95,False,javs
8,5397,truth_conditions,nondistinctive,teeth,generic,2,green,5,False,zoovs
8,2555,truth_conditions,danger-distinct,stripes,generic,3,silver,55,False,frams
8,2203,truth_conditions,nondistinctive,stripes,generic,4,gold,85,False,daiths
8,3219,truth_conditions,danger-distinct,feathers,generic,5,purple,65,False,lorches
8,2101,truth_conditions,bare,shells,generic,6,orange,95,False,luzaks
8,1864,truth_conditions,bare,scales,generic,7,yellow,25,False,dorbs
8,2881,truth_conditions,danger-distinct,tails,generic,8,purple,15,False,taifels
8,1856,truth_conditions,bare,tails,generic,9,green,35,False,trufts
8,1976,truth_conditions,nondistinctive,scales,generic,10,blue,75,False,reesles
8,1595,truth_conditions,danger-distinct,legs,generic,11,silver,85,False,ackles
8,1195,truth_conditions,nondistinctive,tails,generic,12,orange,35,False,zorbs
8,1913,truth_conditions,bare,ears,generic,13,blue,55,False,cheebas
8,1042,truth_conditions,bare,teeth,generic,14,blue,65,False,thups
8,1874,truth_conditions,nondistinctive,spots,generic,15,red,65,False,sapers
8,1323,truth_conditions,nondistinctive,ears,generic,16,pink,55,False,elleps
8,1283,truth_conditions,bare,legs,generic,17,yellow,15,False,ludinos
8,2594,truth_conditions,danger-distinct,shells,generic,18,green,75,False,moxes
8,1691,truth_conditions,bare,spots,generic,19,gold,45,False,stups
8,1577,truth_conditions,bare,feathers,generic,20,gold,5,False,plovs
8,2225,truth_conditions,nondistinctive,legs,generic,21,pink,45,False,feps
8,1083,truth_conditions,nondistinctive,feathers,generic,22,red,25,False,noobs
8,1200,truth_conditions,danger-distinct,spots,generic,23,copper,35,False,glippets
8,1152,truth_conditions,danger-distinct,fur,generic,24,yellow,45,False,ollers
8,3557,truth_conditions,danger-distinct,ears,generic,25,orange,95,False,kazzes
8,1113,truth_conditions,danger-distinct,scales,generic,26,red,25,False,blins
8,1347,truth_conditions,nondistinctive,fur,generic,27,silver,15,False,morseths
8,1335,truth_conditions,danger-distinct,teeth,generic,28,pink,5,False,krivels
8,1817,truth_conditions,bare,stripes,generic,29,copper,75,False,mooks
9,8453,truth_conditions,bare,ears,generic,0,blue,25,False,cheebas
9,11907,truth_conditions,nondistinctive,scales,generic,1,blue,35,False,reesles
9,4095,truth_conditions,nondistinctive,stripes,generic,2,copper,25,False,mooks
9,3285,truth_conditions,nondistinctive,teeth,generic,3,pink,5,False,krivels
9,6009,truth_conditions,danger-distinct,tails,generic,4,orange,55,False,zorbs
9,5058,truth_conditions,bare,fur,generic,5,yellow,45,False,ollers
9,4421,truth_conditions,danger-distinct,legs,generic,6,pink,45,False,feps
9,5483,truth_conditions,bare,teeth,generic,7,blue,65,True,thups
9,5827,truth_conditions,nondistinctive,legs,generic,8,yellow,45,False,ludinos
9,2609,truth_conditions,bare,stripes,generic,9,silver,85,True,frams
9,1669,truth_conditions,bare,spots,generic,10,gold,15,False,stups
9,2940,truth_conditions,danger-distinct,stripes,generic,11,gold,75,True,daiths
9,1787,truth_conditions,danger-distinct,feathers,generic,12,red,15,False,noobs
9,2327,truth_conditions,bare,tails,generic,13,green,5,False,trufts
9,1907,truth_conditions,danger-distinct,ears,generic,14,orange,65,True,kazzes
9,2012,truth_conditions,bare,legs,generic,15,silver,75,True,ackles
9,1882,truth_conditions,danger-distinct,fur,generic,16,silver,35,False,morseths
9,3593,truth_conditions,nondistinctive,shells,generic,17,purple,65,True,javs
9,5373,truth_conditions,danger-distinct,shells,generic,18,green,25,False,moxes
9,2975,truth_conditions,nondistinctive,fur,generic,19,copper,15,False,kweps
9,4334,truth_conditions,nondistinctive,tails,generic,20,purple,75,True,taifels
9,3201,truth_conditions,nondistinctive,ears,generic,21,pink,85,True,elleps
9,2061,truth_conditions,nondistinctive,spots,generic,22,copper,95,True,glippets
9,1913,truth_conditions,danger-distinct,spots,generic,23,red,5,False,sapers
9,1783,truth_conditions,bare,scales,generic,24,yellow,55,False,dorbs
9,1833,truth_conditions,bare,feathers,generic,25,purple,35,False,lorches
9,1951,truth_conditions,danger-distinct,teeth,generic,26,green,95,True,zoovs
9,2054,truth_conditions,nondistinctive,feathers,generic,27,gold,55,False,plovs
9,1821,truth_conditions,danger-distinct,scales,generic,28,red,85,True,blins
9,2193,truth_conditions,bare,shells,generic,29,orange,95,True,luzaks
10,6348,truth_conditions,bare,scales,generic,0,blue,45,True,reesles
10,2334,truth_conditions,bare,fur,generic,1,copper,85,True,kweps
10,5046,truth_conditions,danger-distinct,ears,generic,2,pink,65,True,elleps
10,2838,truth_conditions,nondistinctive,legs,generic,3,silver,35,True,ackles
10,5463,truth_conditions,danger-distinct,stripes,generic,4,gold,45,True,daiths
10,3624,truth_conditions,nondistinctive,shells,generic,5,orange,45,True,luzaks
10,3063,truth_conditions,nondistinctive,teeth,generic,6,pink,25,True,krivels
10,2664,truth_conditions,nondistinctive,tails,generic,7,purple,85,True,taifels
10,1990,truth_conditions,bare,legs,generic,8,pink,75,True,feps
10,4040,truth_conditions,danger-distinct,legs,generic,9,yellow,85,True,ludinos
10,2448,truth_conditions,bare,ears,generic,10,orange,55,True,kazzes
10,3438,truth_conditions,danger-distinct,teeth,generic,11,green,35,True,zoovs
10,2495,truth_conditions,nondistinctive,stripes,generic,12,silver,65,True,frams
10,3375,truth_conditions,danger-distinct,scales,generic,13,yellow,15,True,dorbs
10,3943,truth_conditions,danger-distinct,tails,generic,14,green,95,True,trufts
10,3255,truth_conditions,danger-distinct,feathers,generic,15,purple,25,True,lorches
10,3568,truth_conditions,nondistinctive,fur,generic,16,silver,5,True,morseths
10,3343,truth_conditions,danger-distinct,fur,generic,17,yellow,5,True,ollers
10,2809,truth_conditions,nondistinctive,spots,generic,18,copper,15,True,glippets
10,4358,truth_conditions,danger-distinct,shells,generic,19,green,75,True,moxes
10,10663,truth_conditions,danger-distinct,spots,generic,20,gold,55,True,stups
10,2143,truth_conditions,bare,tails,generic,21,orange,25,True,zorbs
10,1703,truth_conditions,bare,teeth,generic,22,blue,15,True,thups
10,3063,truth_conditions,nondistinctive,feathers,generic,23,red,75,True,noobs
10,2023,truth_conditions,bare,feathers,generic,24,gold,5,True,plovs
10,1863,truth_conditions,bare,spots,generic,25,red,65,True,sapers
10,1832,truth_conditions,bare,shells,generic,26,purple,35,True,javs
10,3944,truth_conditions,nondistinctive,scales,generic,27,red,95,True,blins
10,2336,truth_conditions,bare,stripes,generic,28,copper,95,True,mooks
10,3408,truth_conditions,nondistinctive,ears,generic,29,blue,55,True,cheebas
11,8059,truth_conditions,bare,spots,generic,0,gold,35,True,stups
11,9467,truth_conditions,nondistinctive,stripes,generic,1,silver,55,True,frams
11,6587,truth_conditions,nondistinctive,teeth,generic,2,blue,95,True,thups
11,6242,truth_conditions,nondistinctive,spots,generic,3,red,45,True,sapers
11,7726,truth_conditions,danger-distinct,teeth,generic,4,pink,45,True,krivels
11,4604,truth_conditions,bare,feathers,generic,5,red,75,True,noobs
11,4053,truth_conditions,bare,stripes,generic,6,copper,15,False,mooks
11,4621,truth_conditions,bare,ears,generic,7,pink,85,True,elleps
11,6676,truth_conditions,nondistinctive,fur,generic,8,yellow,65,True,ollers
11,8012,truth_conditions,danger-distinct,spots,generic,9,copper,65,True,glippets
11,7161,truth_conditions,danger-distinct,feathers,generic,10,purple,95,True,lorches
11,13983,truth_conditions,danger-distinct,shells,generic,11,orange,25,True,luzaks
11,7849,truth_conditions,nondistinctive,tails,generic,12,green,85,True,trufts
11,6658,truth_conditions,danger-distinct,stripes,generic,13,gold,35,True,daiths
11,5736,truth_conditions,nondistinctive,shells,generic,14,green,15,False,moxes
11,12121,truth_conditions,nondistinctive,legs,generic,15,pink,25,False,feps
11,4642,truth_conditions,bare,scales,generic,16,blue,55,True,reesles
11,4974,truth_conditions,nondistinctive,ears,generic,17,orange,75,True,kazzes
11,5331,truth_conditions,danger-distinct,legs,generic,18,silver,85,True,ackles
11,17761,truth_conditions,danger-distinct,fur,generic,19,silver,15,False,morseths
11,9304,truth_conditions,danger-distinct,ears,generic,20,blue,55,True,cheebas
11,3234,truth_conditions,bare,teeth,generic,21,green,65,True,zoovs
11,3354,truth_conditions,bare,legs,generic,22,yellow,45,False,ludinos
11,1929,truth_conditions,bare,shells,generic,23,purple,95,True,javs
11,1805,truth_conditions,bare,tails,generic,24,purple,5,False,taifels
11,8045,truth_conditions,danger-distinct,tails,generic,25,orange,5,False,zorbs
11,5378,truth_conditions,danger-distinct,scales,generic,26,red,75,True,blins
11,16887,truth_conditions,bare,fur,generic,27,copper,25,False,kweps
11,4868,truth_conditions,nondistinctive,scales,generic,28,yellow,5,False,dorbs
11,5158,truth_conditions,nondistinctive,feathers,generic,29,gold,35,False,plovs
12,17759,truth_conditions,nondistinctive,spots,generic,0,red,75,True,sapers
12,8982,truth_conditions,bare,scales,generic,1,red,65,True,blins
12,17372,truth_conditions,danger-distinct,legs,generic,2,pink,85,True,feps
12,18261,truth_conditions,danger-distinct,ears,generic,3,orange,15,True,kazzes
12,8743,truth_conditions,bare,teeth,generic,4,green,55,True,zoovs
12,4885,truth_conditions,bare,fur,generic,5,copper,95,True,kweps
12,15864,truth_conditions,danger-distinct,scales,generic,6,yellow,5,True,dorbs
12,13788,truth_conditions,nondistinctive,stripes,generic,7,gold,95,True,daiths
12,11428,truth_conditions,danger-distinct,tails,generic,8,green,35,True,trufts
12,5725,truth_conditions,bare,stripes,generic,9,silver,35,True,frams
12,10761,truth_conditions,danger-distinct,fur,generic,10,yellow,75,True,ollers
12,3952,truth_conditions,bare,legs,generic,11,silver,45,True,ackles
12,11962,truth_conditions,nondistinctive,fur,generic,12,silver,65,True,morseths
12,7374,truth_conditions,nondistinctive,ears,generic,13,pink,15,True,elleps
12,7132,truth_conditions,nondistinctive,feathers,generic,14,purple,5,True,lorches
12,3094,truth_conditions,bare,tails,generic,15,purple,25,True,taifels
12,3256,truth_conditions,bare,feathers,generic,16,red,85,True,noobs
12,6997,truth_conditions,danger-distinct,shells,generic,17,green,65,True,moxes
12,3662,truth_conditions,bare,ears,generic,18,blue,15,True,cheebas
12,11374,truth_conditions,danger-distinct,stripes,generic,19,copper,95,True,mooks
12,10690,truth_conditions,nondistinctive,shells,generic,20,orange,55,True,luzaks
12,6107,truth_conditions,nondistinctive,scales,generic,21,blue,45,True,reesles
12,6937,truth_conditions,danger-distinct,spots,generic,22,gold,55,True,stups
12,4194,truth_conditions,nondistinctive,legs,generic,23,yellow,25,True,ludinos
12,3491,truth_conditions,bare,shells,generic,24,purple,75,True,javs
12,8442,truth_conditions,danger-distinct,feathers,generic,25,gold,45,True,plovs
12,11230,truth_conditions,nondistinctive,tails,generic,26,orange,35,True,zorbs
12,4161,truth_conditions,nondistinctive,teeth,generic,27,pink,85,True,krivels
12,6124,truth_conditions,danger-distinct,teeth,generic,28,blue,25,True,thups
12,3713,truth_conditions,bare,spots,generic,29,copper,5,True,glippets
13,24527,truth_conditions,nondistinctive,tails,generic,0,green,25,False,trufts
13,18582,truth_conditions,danger-distinct,fur,generic,1,copper,55,True,kweps
13,12570,truth_conditions,danger-distinct,ears,generic,2,pink,85,True,elleps
13,12501,truth_conditions,nondistinctive,scales,generic,3,yellow,55,False,dorbs
13,13071,truth_conditions,nondistinctive,spots,generic,4,copper,5,False,glippets
13,16072,truth_conditions,nondistinctive,fur,generic,5,silver,35,False,morseths
13,10834,truth_conditions,nondistinctive,stripes,generic,6,gold,75,True,daiths
13,10029,truth_conditions,danger-distinct,teeth,generic,7,green,25,True,zoovs
13,6423,truth_conditions,bare,stripes,generic,8,copper,15,False,mooks
13,12642,truth_conditions,danger-distinct,spots,generic,9,gold,5,True,stups
13,5347,truth_conditions,bare,teeth,generic,10,pink,95,True,krivels
13,15153,truth_conditions,nondistinctive,shells,generic,11,orange,95,True,luzaks
13,10581,truth_conditions,danger-distinct,scales,generic,12,red,95,True,blins
13,11748,truth_conditions,danger-distinct,tails,generic,13,orange,75,True,zorbs
13,8973,truth_conditions,nondistinctive,ears,generic,14,blue,45,True,cheebas
13,6479,truth_conditions,bare,legs,generic,15,yellow,45,False,ludinos
13,8981,truth_conditions,bare,ears,generic,16,orange,35,False,kazzes
13,8588,truth_conditions,nondistinctive,legs,generic,17,pink,15,False,feps
13,11531,truth_conditions,danger-distinct,shells,generic,18,purple,15,True,javs
13,8551,truth_conditions,nondistinctive,teeth,generic,19,blue,85,True,thups
13,7915,truth_conditions,bare,fur,generic,20,yellow,75,True,ollers
13,10163,truth_conditions,danger-distinct,feathers,generic,21,gold,45,True,plovs
13,11211,truth_conditions,nondistinctive,feathers,generic,22,purple,65,True,lorches
13,9354,truth_conditions,danger-distinct,stripes,generic,23,silver,35,True,frams
13,7647,truth_conditions,danger-distinct,legs,generic,24,silver,65,True,ackles
13,5321,truth_conditions,bare,feathers,generic,25,red,55,True,noobs
13,5179,truth_conditions,bare,scales,generic,26,blue,65,True,reesles
13,3913,truth_conditions,bare,shells,generic,27,green,85,True,moxes
13,8448,truth_conditions,bare,tails,generic,28,purple,25,False,taifels
13,4647,truth_conditions,bare,spots,generic,29,red,5,False,sapers
14,12907,truth_conditions,bare,ears,generic,0,blue,55,True,cheebas
14,22664,truth_conditions,nondistinctive,legs,generic,1,yellow,65,True,ludinos
14,18013,truth_conditions,nondistinctive,spots,generic,2,red,5,True,sapers
14,15754,truth_conditions,danger-distinct,ears,generic,3,orange,95,True,kazzes
14,13086,truth_conditions,nondistinctive,tails,generic,4,green,95,True,trufts
14,9711,truth_conditions,bare,scales,generic,5,red,25,True,blins
14,13340,truth_conditions,danger-distinct,legs,generic,6,pink,5,True,feps
14,13526,truth_conditions,nondistinctive,stripes,generic,7,silver,55,True,frams
14,10532,truth_conditions,danger-distinct,teeth,generic,8,green,35,True,zoovs
14,14041,truth_conditions,nondistinctive,teeth,generic,9,blue,35,True,thups
14,14958,truth_conditions,danger-distinct,stripes,generic,10,gold,65,True,daiths
14,22932,truth_conditions,danger-distinct,tails,generic,11,purple,15,True,taifels
14,6553,truth_conditions,bare,fur,generic,12,yellow,75,True,ollers
14,12903,truth_conditions,nondistinctive,scales,generic,13,yellow,15,True,dorbs
14,12315,truth_conditions,nondistinctive,ears,generic,14,pink,45,True,elleps
14,10738,truth_conditions,danger-distinct,feathers,generic,15,gold,75,True,plovs
14,6181,truth_conditions,bare,tails,generic,16,orange,45,True,zorbs
14,6424,truth_conditions,bare,stripes,generic,17,copper,15,True,mooks
14,7850,truth_conditions,bare,shells,generic,18,orange,35,True,luzaks
14,16795,truth_conditions,nondistinctive,fur,generic,19,copper,75,True,kweps
14,5258,truth_conditions,bare,spots,generic,20,copper,65,True,glippets
14,7295,truth_conditions,bare,legs,generic,21,silver,5,True,ackles
14,12241,truth_conditions,nondistinctive,shells,generic,22,purple,85,True,javs
14,14006,truth_conditions,danger-distinct,fur,generic,23,silver,55,True,morseths
14,5180,truth_conditions,bare,teeth,generic,24,pink,95,True,krivels
14,10681,truth_conditions,danger-distinct,scales,generic,25,blue,85,True,reesles
14,4128,truth_conditions,bare,feathers,generic,26,purple,85,True,lorches
14,10222,truth_conditions,danger-distinct,spots,generic,27,gold,45,True,stups
14,8525,truth_conditions,nondistinctive,feathers,generic,28,red,25,True,noobs
14,9583,truth_conditions,danger-distinct,shells,generic,29,green,25,True,moxes
15,9697,truth_conditions,bare,teeth,generic,0,blue,15,False,thups
15,29160,truth_conditions,danger-distinct,tails,generic,1,purple,85,True,taifels
15,17494,truth_conditions,nondistinctive,shells,generic,2,green,15,True,moxes
15,15603,truth_conditions,nondistinctive,fur,generic,3,yellow,5,False,ollers
15,6840,truth_conditions,bare,stripes,generic,4,silver,45,True,frams
15,8820,truth_conditions,danger-distinct,ears,generic,5,orange,5,True,kazzes
15,7186,truth_conditions,danger-distinct,fur,generic,6,copper,15,True,kweps
15,4282,truth_conditions,nondistinctive,legs,generic,7,yellow,55,False,ludinos
15,6643,truth_conditions,bare,feathers,generic,8,red,5,False,noobs
15,11505,truth_conditions,bare,scales,generic,9,red,35,False,blins
15,3357,truth_conditions,danger-distinct,stripes,generic,10,gold,95,True,daiths
15,3329,truth_conditions,nondistinctive,tails,generic,11,green,65,False,trufts
15,6324,truth_conditions,danger-distinct,legs,generic,12,pink,35,True,feps
15,7554,truth_conditions,nondistinctive,stripes,generic,13,copper,95,True,mooks
15,5798,truth_conditions,nondistinctive,scales,generic,14,blue,45,False,reesles
15,3407,truth_conditions,nondistinctive,spots,generic,15,copper,25,False,glippets
15,3852,truth_conditions,bare,legs,generic,16,silver,95,True,ackles
15,3282,truth_conditions,bare,ears,generic,17,blue,85,True,cheebas
15,5277,truth_conditions,nondistinctive,ears,generic,18,pink,75,True,elleps
15,5144,truth_conditions,bare,shells,generic,19,purple,25,False,javs
15,4530,truth_conditions,danger-distinct,shells,generic,20,orange,45,True,luzaks
15,9092,truth_conditions,danger-distinct,scales,generic,21,yellow,75,True,dorbs
15,2897,truth_conditions,nondistinctive,teeth,generic,22,green,85,True,zoovs
15,4509,truth_conditions,bare,spots,generic,23,red,55,True,sapers
15,4817,truth_conditions,bare,fur,generic,24,silver,75,True,morseths
15,5033,truth_conditions,danger-distinct,spots,generic,25,gold,65,True,stups
15,5741,truth_conditions,danger-distinct,teeth,generic,26,pink,55,True,krivels
15,3430,truth_conditions,nondistinctive,feathers,generic,27,purple,35,False,lorches
15,4948,truth_conditions,bare,tails,generic,28,orange,65,True,zorbs
15,4175,truth_conditions,danger-distinct,feathers,generic,29,gold,25,True,plovs
16,7169,truth_conditions,bare,ears,generic,0,blue,15,False,cheebas
16,5316,truth_conditions,bare,shells,generic,1,green,85,True,moxes
16,10690,truth_conditions,nondistinctive,fur,generic,2,silver,95,True,morseths
16,2685,truth_conditions,bare,tails,generic,3,purple,55,False,taifels
16,7059,truth_conditions,bare,fur,generic,4,copper,35,False,kweps
16,12245,truth_conditions,danger-distinct,ears,generic,5,orange,95,True,kazzes
16,12500,truth_conditions,nondistinctive,spots,generic,6,copper,15,True,glippets
16,7336,truth_conditions,nondistinctive,ears,generic,7,pink,35,True,elleps
16,6095,truth_conditions,nondistinctive,feathers,generic,8,red,45,True,noobs
16,4245,truth_conditions,bare,legs,generic,9,silver,75,True,ackles
16,4365,truth_conditions,danger-distinct,feathers,generic,10,gold,85,True,plovs
16,2022,truth_conditions,bare,spots,generic,11,gold,5,False,stups
16,5116,truth_conditions,nondistinctive,shells,generic,12,purple,5,False,javs
16,2175,truth_conditions,bare,teeth,generic,13,green,95,True,zoovs
16,2012,truth_conditions,danger-distinct,spots,generic,14,red,55,True,sapers
16,2706,truth_conditions,nondistinctive,legs,generic,15,yellow,55,True,ludinos
16,4957,truth_conditions,danger-distinct,teeth,generic,16,blue,75,True,thups
16,2834,truth_conditions,danger-distinct,scales,generic,17,red,35,False,blins
16,1662,truth_conditions,danger-distinct,legs,generic,18,pink,5,False,feps
16,2750,truth_conditions,nondistinctive,tails,generic,19,green,75,True,trufts
16,1199,truth_conditions,nondistinctive,stripes,generic,20,copper,85,True,mooks
16,1579,truth_conditions,danger-distinct,tails,generic,21,orange,15,False,zorbs
16,2197,truth_conditions,bare,stripes,generic,22,silver,45,False,frams
16,1478,truth_conditions,nondistinctive,scales,generic,23,yellow,65,True,dorbs
16,1385,truth_conditions,nondistinctive,teeth,generic,24,pink,25,False,krivels
16,4228,truth_conditions,danger-distinct,stripes,generic,25,gold,65,True,daiths
16,1631,truth_conditions,bare,scales,generic,26,blue,25,False,reesles
16,1601,truth_conditions,bare,feathers,generic,27,purple,65,True,lorches
16,1456,truth_conditions,danger-distinct,shells,generic,28,orange,45,False,luzaks
16,1250,truth_conditions,danger-distinct,fur,generic,29,yellow,25,False,ollers
17,9186,truth_conditions,bare,shells,generic,0,purple,75,True,javs
17,7450,truth_conditions,bare,stripes,generic,1,silver,25,True,frams
17,7119,truth_conditions,danger-distinct,shells,generic,2,orange,85,False,luzaks
17,4160,truth_conditions,bare,spots,generic,3,copper,45,True,glippets
17,7279,truth_conditions,danger-distinct,stripes,generic,4,copper,75,False,mooks
17,3832,truth_conditions,bare,fur,generic,5,silver,35,True,morseths
17,2862,truth_conditions,danger-distinct,fur,generic,6,copper,95,True,kweps
17,3632,truth_conditions,bare,feathers,generic,7,purple,95,False,lorches
17,2551,truth_conditions,nondistinctive,spots,generic,8,gold,55,True,stups
17,5071,truth_conditions,bare,ears,generic,9,orange,55,True,kazzes
17,10696,truth_conditions,nondistinctive,ears,generic,10,blue,95,False,cheebas
17,62167,truth_conditions,danger-distinct,legs,generic,11,yellow,5,False,ludinos
17,1716,truth_conditions,danger-distinct,ears,generic,12,pink,15,True,elleps
17,1591,truth_conditions,danger-distinct,scales,generic,13,yellow,35,True,dorbs
17,1537,truth_conditions,nondistinctive,teeth,generic,14,green,35,False,zoovs
17,2007,truth_conditions,bare,teeth,generic,15,pink,15,True,krivels
17,5783,truth_conditions,nondistinctive,tails,generic,16,purple,15,True,taifels
17,3016,truth_conditions,danger-distinct,spots,generic,17,red,55,False,sapers
17,1688,truth_conditions,danger-distinct,teeth,generic,18,blue,45,True,thups
17,1400,truth_conditions,danger-distinct,tails,generic,19,green,25,True,trufts
17,1151,truth_conditions,nondistinctive,feathers,generic,20,gold,5,False,plovs
17,2217,truth_conditions,bare,legs,generic,21,pink,85,True,feps
17,1773,truth_conditions,nondistinctive,stripes,generic,22,gold,85,True,daiths
17,1351,truth_conditions,nondistinctive,fur,generic,23,yellow,25,False,ollers
17,2906,truth_conditions,danger-distinct,feathers,generic,24,red,65,False,noobs
17,1637,truth_conditions,nondistinctive,scales,generic,25,red,75,False,blins
17,1448,truth_conditions,bare,scales,generic,26,blue,65,False,reesles
17,1528,truth_conditions,nondistinctive,legs,generic,27,silver,45,True,ackles
17,2031,truth_conditions,nondistinctive,shells,generic,28,green,65,False,moxes
17,1831,truth_conditions,bare,tails,generic,29,orange,5,True,zorbs
18,6959,truth_conditions,bare,feathers,generic,0,gold,95,False,plovs
18,9559,truth_conditions,nondistinctive,spots,generic,1,copper,5,True,glippets
18,10133,truth_conditions,danger-distinct,ears,generic,2,pink,35,True,elleps
18,6020,truth_conditions,nondistinctive,shells,generic,3,orange,45,False,luzaks
18,4595,truth_conditions,danger-distinct,legs,generic,4,pink,95,True,feps
18,3774,truth_conditions,bare,fur,generic,5,copper,75,True,kweps
18,2401,truth_conditions,bare,scales,generic,6,yellow,5,False,dorbs
18,4362,truth_conditions,danger-distinct,scales,generic,7,blue,75,True,reesles
18,4414,truth_conditions,nondistinctive,scales,generic,8,red,95,True,blins
18,3613,truth_conditions,bare,tails,generic,9,purple,85,True,taifels
18,5135,truth_conditions,danger-distinct,teeth,generic,10,pink,55,True,krivels
18,5234,truth_conditions,danger-distinct,spots,generic,11,red,85,True,sapers
18,7853,truth_conditions,danger-distinct,stripes,generic,12,copper,5,True,mooks
18,2773,truth_conditions,bare,spots,generic,13,gold,65,True,stups
18,2719,truth_conditions,bare,teeth,generic,14,green,55,True,zoovs
18,4646,truth_conditions,danger-distinct,tails,generic,15,green,15,True,trufts
18,4132,truth_conditions,nondistinctive,ears,generic,16,blue,75,True,cheebas
18,7276,truth_conditions,nondistinctive,legs,generic,17,yellow,25,True,ludinos
18,6242,truth_conditions,danger-distinct,feathers,generic,18,purple,45,True,lorches
18,4424,truth_conditions,nondistinctive,tails,generic,19,orange,65,True,zorbs
18,3849,truth_conditions,bare,ears,generic,20,orange,35,True,kazzes
18,4865,truth_conditions,nondistinctive,fur,generic,21,silver,55,True,morseths
18,4252,truth_conditions,danger-distinct,shells,generic,22,green,65,True,moxes
18,2805,truth_conditions,bare,legs,generic,23,silver,45,True,ackles
18,2745,truth_conditions,bare,stripes,generic,24,silver,25,True,frams
18,2855,truth_conditions,bare,shells,generic,25,purple,15,False,javs
18,5529,truth_conditions,nondistinctive,feathers,generic,26,red,85,True,noobs
18,4696,truth_conditions,nondistinctive,teeth,generic,27,blue,35,False,thups
18,4691,truth_conditions,danger-distinct,fur,generic,28,yellow,25,True,ollers
18,4314,truth_conditions,nondistinctive,stripes,generic,29,gold,15,False,daiths
19,15417,truth_conditions,nondistinctive,legs,generic,0,silver,25,False,ackles
19,6016,truth_conditions,danger-distinct,feathers,generic,1,red,35,False,noobs
19,2700,truth_conditions,bare,scales,generic,2,blue,5,False,reesles
19,2740,truth_conditions,bare,shells,generic,3,orange,45,False,luzaks
19,7744,truth_conditions,nondistinctive,spots,generic,4,gold,65,True,stups
19,1916,truth_conditions,nondistinctive,tails,generic,5,green,75,True,trufts
19,2052,truth_conditions,nondistinctive,feathers,generic,6,purple,85,True,lorches
19,3299,truth_conditions,nondistinctive,fur,generic,7,yellow,55,True,ollers
19,2142,truth_conditions,danger-distinct,spots,generic,8,red,95,True,sapers
19,2108,truth_conditions,bare,spots,generic,9,copper,15,False,glippets
19,2639,truth_conditions,danger-distinct,scales,generic,10,red,15,False,blins
19,1761,truth_conditions,nondistinctive,stripes,generic,11,silver,35,False,frams
19,1932,truth_conditions,danger-distinct,ears,generic,12,blue,45,False,cheebas
19,1719,truth_conditions,nondistinctive,teeth,generic,13,pink,5,False,krivels
19,1883,truth_conditions,danger-distinct,fur,generic,14,silver,55,True,morseths
19,2059,truth_conditions,bare,ears,generic,15,pink,85,True,elleps
19,2158,truth_conditions,danger-distinct,shells,generic,16,green,25,False,moxes
19,5066,truth_conditions,bare,teeth,generic,17,blue,65,True,thups
19,2615,truth_conditions,bare,feathers,generic,18,gold,95,True,plovs
19,2119,truth_conditions,nondistinctive,shells,generic,19,purple,15,False,javs
19,3632,truth_conditions,danger-distinct,legs,generic,20,pink,65,True,feps
19,2066,truth_conditions,bare,tails,generic,21,purple,75,True,taifels
19,1868,truth_conditions,bare,stripes,generic,22,copper,25,False,mooks
19,2658,truth_conditions,nondistinctive,scales,generic,23,yellow,95,True,dorbs
19,2999,truth_conditions,bare,fur,generic,24,copper,35,False,kweps
19,1890,truth_conditions,bare,legs,generic,25,yellow,55,True,ludinos
19,2470,truth_conditions,danger-distinct,stripes,generic,26,gold,85,True,daiths
19,2615,truth_conditions,nondistinctive,ears,generic,27,orange,45,False,kazzes
19,1918,truth_conditions,danger-distinct,teeth,generic,28,green,75,True,zoovs
19,1900,truth_conditions,danger-distinct,tails,generic,29,orange,5,False,zorbs
20,18035,truth_conditions,danger-distinct,spots,generic,0,red,85,True,sapers
20,28375,truth_conditions,bare,spots,generic,1,gold,75,True,stups
20,4390,truth_conditions,bare,feathers,generic,2,gold,95,True,plovs
20,16846,truth_conditions,danger-distinct,feathers,generic,3,purple,15,True,lorches
20,5433,truth_conditions,bare,teeth,generic,4,pink,5,False,krivels
20,7738,truth_conditions,danger-distinct,teeth,generic,5,blue,35,False,thups
20,4845,truth_conditions,bare,tails,generic,6,purple,55,True,taifels
20,5474,truth_conditions,bare,stripes,generic,7,gold,85,True,daiths
20,3426,truth_conditions,bare,legs,generic,8,silver,15,False,ackles
20,8486,truth_conditions,danger-distinct,stripes,generic,9,silver,65,True,frams
20,4879,truth_conditions,nondistinctive,teeth,generic,10,green,65,True,zoovs
20,7748,truth_conditions,danger-distinct,ears,generic,11,orange,75,True,kazzes
20,6431,truth_conditions,danger-distinct,legs,generic,12,yellow,55,True,ludinos
20,6659,truth_conditions,danger-distinct,scales,generic,13,red,25,False,blins
20,3596,truth_conditions,nondistinctive,shells,generic,14,orange,35,False,luzaks
20,3679,truth_conditions,danger-distinct,tails,generic,15,orange,45,False,zorbs
20,3522,truth_conditions,bare,fur,generic,16,silver,35,False,morseths
20,3518,truth_conditions,danger-distinct,shells,generic,17,green,5,False,moxes
20,3522,truth_conditions,bare,ears,generic,18,blue,45,False,cheebas
20,3614,truth_conditions,bare,shells,generic,19,purple,65,True,javs
20,4849,truth_conditions,nondistinctive,scales,generic,20,yellow,85,True,dorbs
20,1954,truth_conditions,nondistinctive,ears,generic,21,pink,5,False,elleps
20,1801,truth_conditions,nondistinctive,spots,generic,22,copper,25,False,glippets
20,3694,truth_conditions,nondistinctive,tails,generic,23,green,75,True,trufts
20,1992,truth_conditions,bare,scales,generic,24,blue,25,False,reesles
20,3187,truth_conditions,nondistinctive,fur,generic,25,copper,45,False,kweps
20,3544,truth_conditions,nondistinctive,stripes,generic,26,copper,55,True,mooks
20,3450,truth_conditions,nondistinctive,feathers,generic,27,red,95,True,noobs
20,5093,truth_conditions,danger-distinct,fur,generic,28,yellow,95,True,ollers
20,11011,truth_conditions,nondistinctive,legs,generic,29,pink,15,False,feps
21,7830,truth_conditions,bare,spots,generic,0,copper,5,True,glippets
21,8316,truth_conditions,nondistinctive,scales,generic,1,red,45,True,blins
21,5279,truth_conditions,bare,shells,generic,2,green,35,True,moxes
21,6303,truth_conditions,bare,stripes,generic,3,silver,25,True,frams
21,3223,truth_conditions,bare,teeth,generic,4,pink,95,True,krivels
21,4264,truth_conditions,bare,fur,generic,5,silver,45,True,morseths
21,3055,truth_conditions,bare,ears,generic,6,pink,65,True,elleps
21,11688,truth_conditions,danger-distinct,spots,generic,7,gold,25,True,stups
21,7183,truth_conditions,nondistinctive,feathers,generic,8,purple,15,True,lorches
21,10353,truth_conditions,nondistinctive,fur,generic,9,yellow,65,True,ollers
21,40607,truth_conditions,nondistinctive,tails,generic,10,orange,25,True,zorbs
21,6472,truth_conditions,nondistinctive,teeth,generic,11,green,5,False,zoovs
21,4543,truth_conditions,danger-distinct,teeth,generic,12,blue,95,True,thups
21,5073,truth_conditions,danger-distinct,ears,generic,13,orange,45,True,kazzes
21,7935,truth_conditions,danger-distinct,feathers,generic,14,gold,5,False,plovs
21,5761,truth_conditions,danger-distinct,shells,generic,15,orange,35,True,luzaks
21,8885,truth_conditions,nondistinctive,stripes,generic,16,gold,95,True,daiths
21,6968,truth_conditions,nondistinctive,spots,generic,17,red,55,True,sapers
21,34865,truth_conditions,nondistinctive,legs,generic,18,yellow,35,True,ludinos
21,2839,truth_conditions,bare,tails,generic,19,green,85,True,trufts
21,2855,truth_conditions,bare,legs,generic,20,pink,15,True,feps
21,3057,truth_conditions,bare,scales,generic,21,blue,75,True,reesles
21,4847,truth_conditions,nondistinctive,ears,generic,22,blue,85,True,cheebas
21,11464,truth_conditions,danger-distinct,fur,generic,23,copper,65,True,kweps
21,11376,truth_conditions,danger-distinct,legs,generic,24,silver,75,True,ackles
21,6367,truth_conditions,danger-distinct,tails,generic,25,purple,55,True,taifels
21,7224,truth_conditions,nondistinctive,shells,generic,26,purple,75,True,javs
21,3872,truth_conditions,bare,feathers,generic,27,red,55,True,noobs
21,13240,truth_conditions,danger-distinct,scales,generic,28,yellow,85,True,dorbs
21,6494,truth_conditions,danger-distinct,stripes,generic,29,copper,15,True,mooks
22,7941,truth_conditions,bare,spots,generic,0,gold,5,False,stups
22,3613,truth_conditions,bare,teeth,generic,1,green,65,True,zoovs
22,2766,truth_conditions,bare,stripes,generic,2,gold,35,True,daiths
22,6564,truth_conditions,nondistinctive,fur,generic,3,copper,55,True,kweps
22,9711,truth_conditions,danger-distinct,stripes,generic,4,copper,35,True,mooks
22,5850,truth_conditions,nondistinctive,spots,generic,5,red,35,True,sapers
22,3302,truth_conditions,nondistinctive,scales,generic,6,blue,95,True,reesles
22,6993,truth_conditions,bare,shells,generic,7,orange,55,True,luzaks
22,5848,truth_conditions,danger-distinct,shells,generic,8,green,95,True,moxes
22,4048,truth_conditions,nondistinctive,legs,generic,9,silver,25,True,ackles
22,4005,truth_conditions,danger-distinct,legs,generic,10,yellow,85,True,ludinos
22,3865,truth_conditions,bare,ears,generic,11,orange,95,True,kazzes
22,3223,truth_conditions,bare,scales,generic,12,red,45,True,blins
22,6384,truth_conditions,danger-distinct,feathers,generic,13,gold,45,True,plovs
22,2824,truth_conditions,bare,fur,generic,14,silver,15,False,morseths
22,4544,truth_conditions,nondistinctive,teeth,generic,15,blue,15,False,thups
22,2776,truth_conditions,bare,tails,generic,16,green,25,False,trufts
22,2327,truth_conditions,bare,feathers,generic,17,red,75,True,noobs
22,5007,truth_conditions,danger-distinct,tails,generic,18,orange,15,False,zorbs
22,14818,truth_conditions,nondistinctive,ears,generic,19,pink,45,False,elleps
22,1820,truth_conditions,bare,legs,generic,20,pink,85,True,feps
22,2057,truth_conditions,danger-distinct,teeth,generic,21,pink,25,False,krivels
22,4302,truth_conditions,danger-distinct,ears,generic,22,blue,75,True,cheebas
22,2263,truth_conditions,nondistinctive,feathers,generic,23,purple,85,True,lorches
22,2423,truth_conditions,nondistinctive,stripes,generic,24,silver,75,True,frams
22,3092,truth_conditions,nondistinctive,tails,generic,25,purple,65,True,taifels
22,3434,truth_conditions,nondistinctive,shells,generic,26,purple,5,False,javs
22,1972,truth_conditions,danger-distinct,spots,generic,27,copper,5,False,glippets
22,2326,truth_conditions,danger-distinct,scales,generic,28,yellow,55,False,dorbs
22,3301,truth_conditions,danger-distinct,fur,generic,29,yellow,65,True,ollers
23,9393,truth_conditions,bare,legs,generic,0,yellow,75,False,ludinos
23,5208,truth_conditions,bare,scales,generic,1,yellow,5,False,dorbs
23,10678,truth_conditions,danger-distinct,scales,generic,2,blue,75,True,reesles
23,11856,truth_conditions,danger-distinct,tails,generic,3,orange,45,True,zorbs
23,6913,truth_conditions,danger-distinct,ears,generic,4,orange,55,True,kazzes
23,5819,truth_conditions,nondistinctive,shells,generic,5,green,5,False,moxes
23,9631,truth_conditions,danger-distinct,shells,generic,6,purple,85,True,javs
23,5001,truth_conditions,bare,ears,generic,7,blue,85,True,cheebas
23,8631,truth_conditions,nondistinctive,teeth,generic,8,pink,45,True,krivels
23,6352,truth_conditions,nondistinctive,stripes,generic,9,copper,15,False,mooks
23,6077,truth_conditions,danger-distinct,fur,generic,10,copper,15,False,kweps
23,3712,truth_conditions,danger-distinct,stripes,generic,11,gold,5,False,daiths
23,3260,truth_conditions,nondistinctive,legs,generic,12,pink,55,True,feps
23,2640,truth_conditions,nondistinctive,tails,generic,13,purple,95,True,taifels
23,2104,truth_conditions,nondistinctive,ears,generic,14,pink,25,False,elleps
23,1917,truth_conditions,bare,stripes,generic,15,silver,35,False,frams
23,3353,truth_conditions,bare,teeth,generic,16,green,15,False,zoovs
23,2364,truth_conditions,bare,fur,generic,17,silver,45,False,morseths
23,5586,truth_conditions,nondistinctive,feathers,generic,18,gold,85,True,plovs
23,3069,truth_conditions,bare,feathers,generic,19,red,25,False,noobs
23,3170,truth_conditions,bare,shells,generic,20,orange,65,True,luzaks
23,3141,truth_conditions,danger-distinct,spots,generic,21,red,25,False,sapers
23,3160,truth_conditions,danger-distinct,legs,generic,22,silver,65,True,ackles
23,1930,truth_conditions,bare,tails,generic,23,green,55,True,trufts
23,2883,truth_conditions,bare,spots,generic,24,copper,95,True,glippets
23,2744,truth_conditions,danger-distinct,teeth,generic,25,blue,95,True,thups
23,1815,truth_conditions,nondistinctive,scales,generic,26,red,75,True,blins
23,2080,truth_conditions,nondistinctive,spots,generic,27,gold,65,True,stups
23,4422,truth_conditions,danger-distinct,feathers,generic,28,purple,35,False,lorches
23,2008,truth_conditions,nondistinctive,fur,generic,29,yellow,35,False,ollers
24,27925,truth_conditions,nondistinctive,stripes,generic,0,silver,5,True,frams
24,14733,truth_conditions,danger-distinct,ears,generic,1,blue,85,True,cheebas
24,7194,truth_conditions,bare,shells,generic,2,orange,55,True,luzaks
24,11145,truth_conditions,danger-distinct,fur,generic,3,silver,25,True,morseths
24,8774,truth_conditions,nondistinctive,feathers,generic,4,purple,25,True,lorches
24,7935,truth_conditions,bare,scales,generic,5,red,75,True,blins
24,10673,truth_conditions,danger-distinct,feathers,generic,6,red,55,True,noobs
24,9357,truth_conditions,nondistinctive,scales,generic,7,yellow,95,True,dorbs
24,8054,truth_conditions,nondistinctive,teeth,generic,8,pink,55,True,krivels
24,11031,truth_conditions,danger-distinct,teeth,generic,9,blue,35,True,thups
24,8866,truth_conditions,danger-distinct,legs,generic,10,yellow,45,True,ludinos
24,7210,truth_conditions,bare,fur,generic,11,copper,65,True,kweps
24,5353,truth_conditions,bare,tails,generic,12,purple,15,True,taifels
24,8241,truth_conditions,nondistinctive,legs,generic,13,silver,15,True,ackles
24,8166,truth_conditions,bare,feathers,generic,14,gold,35,True,plovs
24,4830,truth_conditions,bare,ears,generic,15,pink,25,True,elleps
24,9394,truth_conditions,danger-distinct,spots,generic,16,red,65,True,sapers
24,5523,truth_conditions,bare,spots,generic,17,copper,85,True,glippets
24,7094,truth_conditions,nondistinctive,fur,generic,18,yellow,85,True,ollers
24,4483,truth_conditions,bare,legs,generic,19,pink,5,True,feps
24,8217,truth_conditions,danger-distinct,tails,generic,20,green,15,True,trufts
24,10021,truth_conditions,nondistinctive,spots,generic,21,gold,35,True,stups
24,8348,truth_conditions,danger-distinct,scales,generic,22,blue,75,True,reesles
24,4030,truth_conditions,bare,teeth,generic,23,green,45,True,zoovs
24,9417,truth_conditions,danger-distinct,stripes,generic,24,gold,95,True,daiths
24,3705,truth_conditions,bare,stripes,generic,25,copper,95,True,mooks
24,8749,truth_conditions,nondistinctive,tails,generic,26,orange,65,True,zorbs
24,8898,truth_conditions,nondistinctive,ears,generic,27,orange,45,True,kazzes
24,7039,truth_conditions,nondistinctive,shells,generic,28,green,75,True,moxes
24,9235,truth_conditions,danger-distinct,shells,generic,29,purple,5,True,javs
25,13853,truth_conditions,bare,fur,generic,0,yellow,25,True,ollers
25,4815,truth_conditions,bare,legs,generic,1,yellow,45,True,ludinos
25,12764,truth_conditions,nondistinctive,shells,generic,2,green,35,True,moxes
25,6115,truth_conditions,bare,feathers,generic,3,purple,85,True,lorches
25,5120,truth_conditions,bare,spots,generic,4,copper,65,True,glippets
25,11468,truth_conditions,danger-distinct,shells,generic,5,orange,25,True,luzaks
25,5313,truth_conditions,bare,shells,generic,6,purple,5,True,javs
25,10134,truth_conditions,nondistinctive,scales,generic,7,yellow,15,True,dorbs
25,11199,truth_conditions,danger-distinct,spots,generic,8,gold,75,True,stups
25,9311,truth_conditions,nondistinctive,fur,generic,9,silver,65,True,morseths
25,8472,truth_conditions,nondistinctive,feathers,generic,10,red,25,True,noobs
25,7632,truth_conditions,danger-distinct,scales,generic,11,red,85,True,blins
25,5167,truth_conditions,nondistinctive,legs,generic,12,silver,95,True,ackles
25,6249,truth_conditions,danger-distinct,teeth,generic,13,blue,45,True,thups
25,6280,truth_conditions,danger-distinct,legs,generic,14,pink,55,True,feps
25,6302,truth_conditions,bare,scales,generic,15,blue,95,True,reesles
25,4314,truth_conditions,bare,stripes,generic,16,silver,75,True,frams
25,3799,truth_conditions,bare,teeth,generic,17,green,35,True,zoovs
25,4337,truth_conditions,bare,tails,generic,18,green,15,True,trufts
25,3581,truth_conditions,bare,ears,generic,19,blue,55,True,cheebas
25,7051,truth_conditions,nondistinctive,stripes,generic,20,copper,45,True,mooks
25,9513,truth_conditions,danger-distinct,tails,generic,21,purple,65,True,taifels
25,7519,truth_conditions,danger-distinct,fur,generic,22,copper,5,True,kweps
25,5768,truth_conditions,nondistinctive,ears,generic,23,orange,85,True,kazzes
25,7885,truth_conditions,danger-distinct,stripes,generic,24,gold,15,True,daiths
25,7300,truth_conditions,nondistinctive,spots,generic,25,red,55,True,sapers
25,8035,truth_conditions,nondistinctive,tails,generic,26,orange,5,True,zorbs
25,5515,truth_conditions,danger-distinct,feathers,generic,27,gold,95,True,plovs
25,7090,truth_conditions,danger-distinct,ears,generic,28,pink,35,True,elleps
25,4724,truth_conditions,nondistinctive,teeth,generic,29,pink,75,True,krivels
26,6232,truth_conditions,bare,shells,generic,0,orange,35,False,luzaks
26,16515,truth_conditions,danger-distinct,fur,generic,1,silver,35,False,morseths
26,8679,truth_conditions,bare,fur,generic,2,yellow,55,False,ollers
26,3919,truth_conditions,bare,legs,generic,3,yellow,45,False,ludinos
26,7935,truth_conditions,nondistinctive,feathers,generic,4,gold,75,False,plovs
26,6840,truth_conditions,nondistinctive,scales,generic,5,yellow,5,False,dorbs
26,16719,truth_conditions,danger-distinct,legs,generic,6,silver,45,True,ackles
26,12931,truth_conditions,danger-distinct,spots,generic,7,copper,75,True,glippets
26,6489,truth_conditions,bare,tails,generic,8,orange,25,False,zorbs
26,7478,truth_conditions,danger-distinct,teeth,generic,9,blue,55,True,thups
26,13075,truth_conditions,nondistinctive,fur,generic,10,copper,65,True,kweps
26,12294,truth_conditions,nondistinctive,legs,generic,11,pink,25,False,feps
26,2739,truth_conditions,nondistinctive,shells,generic,12,purple,35,False,javs
26,3285,truth_conditions,danger-distinct,shells,generic,13,green,15,True,moxes
26,19112,truth_conditions,bare,stripes,generic,14,silver,85,True,frams
26,3063,truth_conditions,nondistinctive,teeth,generic,15,green,15,False,zoovs
26,8983,truth_conditions,danger-distinct,ears,generic,16,pink,25,False,elleps
26,5743,truth_conditions,nondistinctive,tails,generic,17,green,55,False,trufts
26,7039,truth_conditions,danger-distinct,stripes,generic,18,copper,85,True,mooks
26,4600,truth_conditions,nondistinctive,spots,generic,19,red,95,False,sapers
26,3832,truth_conditions,danger-distinct,scales,generic,20,red,5,False,blins
26,4304,truth_conditions,bare,teeth,generic,21,pink,15,False,krivels
26,2853,truth_conditions,bare,ears,generic,22,blue,5,False,cheebas
26,3567,truth_conditions,nondistinctive,ears,generic,23,orange,85,False,kazzes
26,9055,truth_conditions,danger-distinct,tails,generic,24,purple,95,False,taifels
26,15415,truth_conditions,bare,scales,generic,25,blue,65,False,reesles
26,3495,truth_conditions,bare,spots,generic,26,gold,75,True,stups
26,23223,truth_conditions,nondistinctive,stripes,generic,27,gold,45,False,daiths
26,4992,truth_conditions,danger-distinct,feathers,generic,28,purple,65,True,lorches
26,3512,truth_conditions,bare,feathers,generic,29,red,95,True,noobs
27,22472,truth_conditions,bare,legs,generic,0,pink,95,True,feps
27,10356,truth_conditions,bare,tails,generic,1,green,55,True,trufts
27,9270,truth_conditions,bare,ears,generic,2,orange,85,True,kazzes
27,25216,truth_conditions,danger-distinct,tails,generic,3,orange,65,True,zorbs
27,9295,truth_conditions,bare,teeth,generic,4,blue,65,True,thups
27,19064,truth_conditions,danger-distinct,shells,generic,5,orange,25,True,luzaks
27,12806,truth_conditions,danger-distinct,scales,generic,6,yellow,45,True,dorbs
27,17952,truth_conditions,nondistinctive,stripes,generic,7,copper,75,True,mooks
27,12016,truth_conditions,nondistinctive,teeth,generic,8,pink,15,True,krivels
27,16383,truth_conditions,nondistinctive,feathers,generic,9,purple,65,True,lorches
27,13255,truth_conditions,danger-distinct,fur,generic,10,yellow,85,True,ollers
27,14507,truth_conditions,bare,scales,generic,11,red,25,True,blins
27,13732,truth_conditions,nondistinctive,scales,generic,12,blue,55,True,reesles
27,10664,truth_conditions,bare,spots,generic,13,red,5,True,sapers
27,7039,truth_conditions,bare,fur,generic,14,copper,35,True,kweps
27,14801,truth_conditions,nondistinctive,fur,generic,15,silver,95,True,morseths
27,12504,truth_conditions,nondistinctive,ears,generic,16,blue,85,True,cheebas
27,16968,truth_conditions,danger-distinct,teeth,generic,17,green,15,True,zoovs
27,6903,truth_conditions,bare,shells,generic,18,purple,45,True,javs
27,6281,truth_conditions,bare,feathers,generic,19,gold,15,True,plovs
27,12351,truth_conditions,nondistinctive,spots,generic,20,copper,45,True,glippets
27,6553,truth_conditions,bare,stripes,generic,21,gold,75,True,daiths
27,14992,truth_conditions,nondistinctive,legs,generic,22,silver,5,True,ackles
27,13071,truth_conditions,nondistinctive,tails,generic,23,purple,25,True,taifels
27,13256,truth_conditions,nondistinctive,shells,generic,24,green,35,True,moxes
27,14440,truth_conditions,danger-distinct,legs,generic,25,yellow,95,True,ludinos
27,16287,truth_conditions,danger-distinct,feathers,generic,26,red,75,True,noobs
27,17184,truth_conditions,danger-distinct,spots,generic,27,gold,5,True,stups
27,12287,truth_conditions,danger-distinct,ears,generic,28,pink,55,True,elleps
27,20728,truth_conditions,danger-distinct,stripes,generic,29,silver,35,True,frams
28,20283,truth_conditions,nondistinctive,teeth,generic,0,green,85,True,zoovs
28,6847,truth_conditions,bare,spots,generic,1,red,65,True,sapers
28,11834,truth_conditions,danger-distinct,scales,generic,2,red,75,True,blins
28,19457,truth_conditions,nondistinctive,spots,generic,3,copper,35,False,glippets
28,10459,truth_conditions,bare,ears,generic,4,pink,25,False,elleps
28,10235,truth_conditions,danger-distinct,teeth,generic,5,pink,65,True,krivels
28,10826,truth_conditions,danger-distinct,fur,generic,6,yellow,95,True,ollers
28,11454,truth_conditions,danger-distinct,feathers,generic,7,red,35,True,noobs
28,10185,truth_conditions,nondistinctive,fur,generic,8,copper,15,True,kweps
28,10136,truth_conditions,danger-distinct,shells,generic,9,green,45,True,moxes
28,4722,truth_conditions,bare,feathers,generic,10,gold,85,True,plovs
28,6511,truth_conditions,bare,legs,generic,11,silver,45,True,ackles
28,4172,truth_conditions,bare,shells,generic,12,purple,95,True,javs
28,8778,truth_conditions,nondistinctive,tails,generic,13,green,45,False,trufts
28,7313,truth_conditions,bare,stripes,generic,14,silver,15,False,frams
28,4335,truth_conditions,bare,fur,generic,15,silver,5,False,morseths
28,9997,truth_conditions,nondistinctive,feathers,generic,16,purple,25,False,lorches
28,11010,truth_conditions,nondistinctive,shells,generic,17,orange,55,True,luzaks
28,11224,truth_conditions,nondistinctive,ears,generic,18,orange,5,False,kazzes
28,5234,truth_conditions,bare,scales,generic,19,blue,35,True,reesles
28,8931,truth_conditions,nondistinctive,scales,generic,20,yellow,65,True,dorbs
28,6772,truth_conditions,nondistinctive,stripes,generic,21,copper,95,True,mooks
28,6777,truth_conditions,danger-distinct,legs,generic,22,yellow,15,True,ludinos
28,4069,truth_conditions,bare,teeth,generic,23,blue,55,True,thups
28,5123,truth_conditions,bare,tails,generic,24,purple,75,True,taifels
28,14653,truth_conditions,danger-distinct,tails,generic,25,orange,55,True,zorbs
28,12763,truth_conditions,danger-distinct,spots,generic,26,gold,85,True,stups
28,8264,truth_conditions,danger-distinct,ears,generic,27,blue,5,True,cheebas
28,14403,truth_conditions,danger-distinct,stripes,generic,28,gold,25,True,daiths
28,9540,truth_conditions,nondistinctive,legs,generic,29,pink,75,True,feps
29,16707,truth_conditions,bare,tails,generic,0,green,15,True,trufts
29,89843,truth_conditions,bare,feathers,generic,1,red,85,True,noobs
29,7790,truth_conditions,bare,ears,generic,2,orange,95,True,kazzes
29,6481,truth_conditions,bare,stripes,generic,3,copper,45,True,mooks
29,15094,truth_conditions,danger-distinct,fur,generic,4,copper,5,True,kweps
29,10646,truth_conditions,nondistinctive,teeth,generic,5,pink,85,True,krivels
29,11585,truth_conditions,danger-distinct,ears,generic,6,pink,15,True,elleps
29,9748,truth_conditions,nondistinctive,tails,generic,7,purple,55,True,taifels
29,7133,truth_conditions,nondistinctive,spots,generic,8,red,75,True,sapers
29,9187,truth_conditions,danger-distinct,tails,generic,9,orange,45,True,zorbs
29,7914,truth_conditions,bare,scales,generic,10,blue,65,True,reesles
29,5937,truth_conditions,danger-distinct,teeth,generic,11,green,65,True,zoovs
29,10330,truth_conditions,bare,legs,generic,12,silver,5,True,ackles
29,6854,truth_conditions,bare,spots,generic,13,copper,55,True,glippets
29,7622,truth_conditions,nondistinctive,ears,generic,14,blue,15,True,cheebas
29,7614,truth_conditions,danger-distinct,scales,generic,15,red,55,True,blins
29,3141,truth_conditions,bare,shells,generic,16,green,25,True,moxes
29,5588,truth_conditions,nondistinctive,legs,generic,17,pink,65,True,feps
29,9661,truth_conditions,danger-distinct,feathers,generic,18,purple,25,True,lorches
29,6495,truth_conditions,nondistinctive,shells,generic,19,purple,25,True,javs
29,5529,truth_conditions,danger-distinct,spots,generic,20,gold,75,True,stups
29,4853,truth_conditions,nondistinctive,scales,generic,21,yellow,45,True,dorbs
29,5089,truth_conditions,danger-distinct,legs,generic,22,yellow,85,True,ludinos
29,3426,truth_conditions,bare,teeth,generic,23,blue,35,True,thups
29,8512,truth_conditions,danger-distinct,stripes,generic,24,silver,35,True,frams
29,4689,truth_conditions,nondistinctive,feathers,generic,25,gold,35,True,plovs
29,2980,truth_conditions,bare,fur,generic,26,silver,75,True,morseths
29,5306,truth_conditions,nondistinctive,stripes,generic,27,gold,5,True,daiths
29,6944,truth_conditions,danger-distinct,shells,generic,28,orange,95,True,luzaks
29,39692,truth_conditions,nondistinctive,fur,generic,29,yellow,95,True,ollers
30,14639,truth_conditions,danger-distinct,spots,generic,0,gold,65,True,stups
30,7592,truth_conditions,bare,feathers,generic,1,red,25,False,noobs
30,2607,truth_conditions,bare,legs,generic,2,silver,95,True,ackles
30,2032,truth_conditions,bare,fur,generic,3,yellow,75,False,ollers
30,7840,truth_conditions,nondistinctive,tails,generic,4,orange,15,False,zorbs
30,3569,truth_conditions,nondistinctive,shells,generic,5,purple,25,False,javs
30,1535,truth_conditions,nondistinctive,teeth,generic,6,pink,35,False,krivels
30,3896,truth_conditions,bare,teeth,generic,7,green,5,False,zoovs
30,2512,truth_conditions,nondistinctive,ears,generic,8,blue,95,True,cheebas
30,2784,truth_conditions,danger-distinct,tails,generic,9,purple,25,False,taifels
30,4192,truth_conditions,nondistinctive,fur,generic,10,copper,5,False,kweps
30,7312,truth_conditions,danger-distinct,fur,generic,11,silver,85,True,morseths
30,2642,truth_conditions,nondistinctive,feathers,generic,12,gold,45,True,plovs
30,2960,truth_conditions,bare,stripes,generic,13,gold,15,False,daiths
30,4303,truth_conditions,danger-distinct,legs,generic,14,yellow,35,True,ludinos
30,1376,truth_conditions,nondistinctive,legs,generic,15,pink,75,True,feps
30,3008,truth_conditions,danger-distinct,teeth,generic,16,blue,15,False,thups
30,1903,truth_conditions,bare,tails,generic,17,green,65,True,trufts
30,1633,truth_conditions,danger-distinct,scales,generic,18,red,75,True,blins
30,3400,truth_conditions,nondistinctive,scales,generic,19,yellow,55,True,dorbs
30,2081,truth_conditions,danger-distinct,stripes,generic,20,silver,55,True,frams
30,2424,truth_conditions,bare,spots,generic,21,copper,55,True,glippets
30,2687,truth_conditions,danger-distinct,ears,generic,22,pink,95,True,elleps
30,2664,truth_conditions,danger-distinct,shells,generic,23,orange,45,False,luzaks
30,2000,truth_conditions,bare,shells,generic,24,green,45,False,moxes
30,3775,truth_conditions,danger-distinct,feathers,generic,25,purple,5,False,lorches
30,3736,truth_conditions,bare,scales,generic,26,blue,85,True,reesles
30,5881,truth_conditions,nondistinctive,spots,generic,27,red,85,True,sapers
30,2128,truth_conditions,bare,ears,generic,28,orange,35,False,kazzes
30,4320,truth_conditions,nondistinctive,stripes,generic,29,copper,65,True,mooks
31,18378,truth_conditions,nondistinctive,teeth,generic,0,blue,15,False,thups
31,15954,truth_conditions,danger-distinct,scales,generic,1,yellow,15,False,dorbs
31,7568,truth_conditions,danger-distinct,spots,generic,2,gold,95,True,stups
31,6163,truth_conditions,bare,ears,generic,3,pink,5,False,elleps
31,4794,truth_conditions,bare,spots,generic,4,red,55,True,sapers
31,4353,truth_conditions,bare,fur,generic,5,silver,15,False,morseths
31,11515,truth_conditions,nondistinctive,scales,generic,6,red,65,True,blins
31,6187,truth_conditions,nondistinctive,fur,generic,7,yellow,85,True,ollers
31,12756,truth_conditions,nondistinctive,legs,generic,8,silver,25,False,ackles
31,4378,truth_conditions,bare,teeth,generic,9,green,25,False,zoovs
31,3889,truth_conditions,bare,stripes,generic,10,gold,65,True,daiths
31,9575,truth_conditions,nondistinctive,stripes,generic,11,copper,45,True,mooks
31,4610,truth_conditions,bare,legs,generic,12,pink,75,True,feps
31,7436,truth_conditions,danger-distinct,stripes,generic,13,silver,85,True,frams
31,5251,truth_conditions,danger-distinct,feathers,generic,14,purple,65,True,lorches
31,5380,truth_conditions,danger-distinct,fur,generic,15,copper,55,True,kweps
31,4599,truth_conditions,danger-distinct,teeth,generic,16,pink,45,True,krivels
31,10016,truth_conditions,nondistinctive,spots,generic,17,copper,35,True,glippets
31,3938,truth_conditions,nondistinctive,shells,generic,18,purple,5,False,javs
31,4133,truth_conditions,nondistinctive,tails,generic,19,green,55,True,trufts
31,4121,truth_conditions,bare,tails,generic,20,orange,85,True,zorbs
31,5210,truth_conditions,bare,shells,generic,21,green,35,True,moxes
31,6725,truth_conditions,danger-distinct,tails,generic,22,purple,35,True,taifels
31,6689,truth_conditions,danger-distinct,legs,generic,23,yellow,5,False,ludinos
31,3448,truth_conditions,nondistinctive,feathers,generic,24,gold,75,True,plovs
31,3498,truth_conditions,bare,scales,generic,25,blue,45,True,reesles
31,4727,truth_conditions,danger-distinct,ears,generic,26,blue,75,True,cheebas
31,3877,truth_conditions,nondistinctive,ears,generic,27,orange,95,True,kazzes
31,7449,truth_conditions,danger-distinct,shells,generic,28,orange,25,False,luzaks
31,4771,truth_conditions,bare,feathers,generic,29,red,95,True,noobs
32,27926,truth_conditions,danger-distinct,shells,generic,0,green,75,True,moxes
32,17031,truth_conditions,nondistinctive,shells,generic,1,purple,5,True,javs
32,9064,truth_conditions,danger-distinct,ears,generic,2,orange,5,True,kazzes
32,15114,truth_conditions,danger-distinct,stripes,generic,3,silver,55,True,frams
32,7401,truth_conditions,nondistinctive,legs,generic,4,yellow,55,True,ludinos
32,5616,truth_conditions,danger-distinct,legs,generic,5,pink,25,True,feps
32,5744,truth_conditions,nondistinctive,tails,generic,6,green,95,True,trufts
32,5153,truth_conditions,bare,ears,generic,7,pink,55,True,elleps
32,6025,truth_conditions,nondistinctive,stripes,generic,8,gold,15,True,daiths
32,12690,truth_conditions,danger-distinct,fur,generic,9,yellow,45,True,ollers
32,4632,truth_conditions,bare,legs,generic,10,silver,25,True,ackles
32,2920,truth_conditions,bare,tails,generic,11,orange,45,True,zorbs
32,15402,truth_conditions,danger-distinct,spots,generic,12,copper,95,True,glippets
32,2848,truth_conditions,bare,teeth,generic,13,green,65,True,zoovs
32,2056,truth_conditions,bare,feathers,generic,14,gold,85,True,plovs
32,3537,truth_conditions,nondistinctive,ears,generic,15,blue,75,True,cheebas
32,3408,truth_conditions,danger-distinct,feathers,generic,16,purple,35,True,lorches
32,4090,truth_conditions,bare,spots,generic,17,gold,75,True,stups
32,5694,truth_conditions,nondistinctive,scales,generic,18,blue,25,True,reesles
32,4520,truth_conditions,nondistinctive,teeth,generic,19,pink,65,True,krivels
32,7169,truth_conditions,bare,shells,generic,20,orange,5,True,luzaks
32,5561,truth_conditions,nondistinctive,fur,generic,21,silver,35,True,morseths
32,2816,truth_conditions,danger-distinct,teeth,generic,22,blue,15,True,thups
32,4160,truth_conditions,nondistinctive,feathers,generic,23,red,85,True,noobs
32,3186,truth_conditions,bare,scales,generic,24,red,15,True,blins
32,3927,truth_conditions,bare,stripes,generic,25,copper,35,True,mooks
32,3401,truth_conditions,danger-distinct,tails,generic,26,purple,85,True,taifels
32,5423,truth_conditions,bare,fur,generic,27,copper,95,True,kweps
32,3305,truth_conditions,danger-distinct,scales,generic,28,yellow,65,True,dorbs
32,19322,truth_conditions,nondistinctive,spots,generic,29,red,45,True,sapers
33,17506,truth_conditions,danger-distinct,stripes,generic,0,copper,75,False,mooks
33,8814,truth_conditions,nondistinctive,ears,generic,1,pink,95,False,elleps
33,13302,truth_conditions,nondistinctive,spots,generic,2,copper,65,False,glippets
33,15292,truth_conditions,danger-distinct,tails,generic,3,green,25,False,trufts
33,8624,truth_conditions,bare,stripes,generic,4,silver,85,False,frams
33,7316,truth_conditions,danger-distinct,feathers,generic,5,gold,45,False,plovs
33,7727,truth_conditions,nondistinctive,tails,generic,6,purple,5,False,taifels
33,6335,truth_conditions,bare,feathers,generic,7,purple,45,False,lorches
33,8327,truth_conditions,bare,spots,generic,8,red,95,False,sapers
33,5012,truth_conditions,nondistinctive,legs,generic,9,pink,15,False,feps
33,3754,truth_conditions,bare,scales,generic,10,yellow,15,False,dorbs
33,8739,truth_conditions,danger-distinct,scales,generic,11,red,5,False,blins
33,6270,truth_conditions,nondistinctive,feathers,generic,12,red,85,False,noobs
33,5420,truth_conditions,nondistinctive,shells,generic,13,purple,35,False,javs
33,8182,truth_conditions,nondistinctive,teeth,generic,14,pink,25,False,krivels
33,7830,truth_conditions,danger-distinct,shells,generic,15,orange,15,False,luzaks
33,12451,truth_conditions,danger-distinct,fur,generic,16,yellow,35,False,ollers
33,5223,truth_conditions,bare,ears,generic,17,orange,75,False,kazzes
33,4701,truth_conditions,bare,legs,generic,18,silver,55,False,ackles
33,4561,truth_conditions,bare,shells,generic,19,green,25,False,moxes
33,4880,truth_conditions,danger-distinct,legs,generic,20,yellow,65,False,ludinos
33,5682,truth_conditions,danger-distinct,spots,generic,21,gold,95,False,stups
33,8359,truth_conditions,danger-distinct,teeth,generic,22,green,55,False,zoovs
33,7872,truth_conditions,bare,fur,generic,23,silver,35,False,morseths
33,3657,truth_conditions,bare,tails,generic,24,orange,65,False,zorbs
33,7817,truth_conditions,nondistinctive,fur,generic,25,copper,45,False,kweps
33,3962,truth_conditions,danger-distinct,ears,generic,26,blue,85,False,cheebas
33,5037,truth_conditions,nondistinctive,stripes,generic,27,gold,55,False,daiths
33,3316,truth_conditions,bare,teeth,generic,28,blue,5,False,thups
33,7533,truth_conditions,nondistinctive,scales,generic,29,blue,75,False,reesles
34,20718,truth_conditions,danger-distinct,stripes,generic,0,silver,95,True,frams
34,21554,truth_conditions,danger-distinct,feathers,generic,1,purple,15,True,lorches
34,6010,truth_conditions,bare,shells,generic,2,purple,85,True,javs
34,12412,truth_conditions,nondistinctive,ears,generic,3,blue,35,True,cheebas
34,6071,truth_conditions,bare,teeth,generic,4,pink,25,False,krivels
34,14297,truth_conditions,nondistinctive,scales,generic,5,red,25,False,blins
34,15878,truth_conditions,danger-distinct,shells,generic,6,green,45,True,moxes
34,12391,truth_conditions,danger-distinct,legs,generic,7,silver,25,False,ackles
34,9220,truth_conditions,nondistinctive,teeth,generic,8,blue,55,True,thups
34,7548,truth_conditions,bare,stripes,generic,9,copper,75,True,mooks
34,3242,truth_conditions,bare,spots,generic,10,copper,95,True,glippets
34,5853,truth_conditions,nondistinctive,legs,generic,11,yellow,75,True,ludinos
34,9031,truth_conditions,nondistinctive,fur,generic,12,copper,45,True,kweps
34,7837,truth_conditions,nondistinctive,feathers,generic,13,red,65,True,noobs
34,10380,truth_conditions,danger-distinct,scales,generic,14,blue,65,True,reesles
34,4661,truth_conditions,bare,ears,generic,15,orange,65,True,kazzes
34,9210,truth_conditions,danger-distinct,ears,generic,16,pink,35,True,elleps
34,7062,truth_conditions,nondistinctive,shells,generic,17,orange,15,False,luzaks
34,6359,truth_conditions,danger-distinct,tails,generic,18,purple,75,True,taifels
34,5489,truth_conditions,bare,legs,generic,19,pink,35,True,feps
34,4411,truth_conditions,bare,scales,generic,20,yellow,15,False,dorbs
34,5263,truth_conditions,nondistinctive,stripes,generic,21,gold,5,False,daiths
34,2871,truth_conditions,bare,fur,generic,22,silver,5,False,morseths
34,4093,truth_conditions,danger-distinct,fur,generic,23,yellow,5,False,ollers
34,4823,truth_conditions,nondistinctive,spots,generic,24,gold,95,True,stups
34,3631,truth_conditions,bare,tails,generic,25,orange,45,True,zorbs
34,3680,truth_conditions,danger-distinct,spots,generic,26,red,85,True,sapers
34,4283,truth_conditions,danger-distinct,teeth,generic,27,green,55,True,zoovs
34,2904,truth_conditions,bare,feathers,generic,28,gold,55,True,plovs
34,4542,truth_conditions,nondistinctive,tails,generic,29,green,85,True,trufts
35,6036,truth_conditions,bare,stripes,generic,0,gold,25,True,daiths
35,7449,truth_conditions,nondistinctive,ears,generic,1,orange,15,True,kazzes
35,5164,truth_conditions,nondistinctive,teeth,generic,2,blue,85,True,thups
35,7457,truth_conditions,nondistinctive,feathers,generic,3,gold,5,False,plovs
35,3677,truth_conditions,bare,shells,generic,4,orange,45,True,luzaks
35,3782,truth_conditions,nondistinctive,spots,generic,5,red,65,True,sapers
35,7712,truth_conditions,nondistinctive,shells,generic,6,purple,95,True,javs
35,2911,truth_conditions,bare,legs,generic,7,yellow,15,False,ludinos
35,3200,truth_conditions,bare,ears,generic,8,pink,5,False,elleps
35,4215,truth_conditions,danger-distinct,tails,generic,9,purple,75,True,taifels
35,2816,truth_conditions,danger-distinct,spots,generic,10,copper,65,True,glippets
35,2752,truth_conditions,nondistinctive,fur,generic,11,copper,55,True,kweps
35,3812,truth_conditions,nondistinctive,scales,generic,12,blue,25,False,reesles
35,4008,truth_conditions,danger-distinct,scales,generic,13,yellow,35,True,dorbs
35,3304,truth_conditions,bare,feathers,generic,14,red,35,True,noobs
35,2400,truth_conditions,danger-distinct,teeth,generic,15,pink,25,True,krivels
35,1885,truth_conditions,bare,tails,generic,16,orange,75,True,zorbs
35,3834,truth_conditions,danger-distinct,fur,generic,17,silver,45,True,morseths
35,2256,truth_conditions,nondistinctive,stripes,generic,18,copper,75,True,mooks
35,2584,truth_conditions,bare,fur,generic,19,yellow,95,True,ollers
35,2055,truth_conditions,bare,scales,generic,20,red,55,True,blins
35,3119,truth_conditions,danger-distinct,ears,generic,21,blue,15,False,cheebas
35,2471,truth_conditions,danger-distinct,feathers,generic,22,purple,5,False,lorches
35,1767,truth_conditions,danger-distinct,stripes,generic,23,silver,55,True,frams
35,2399,truth_conditions,nondistinctive,tails,generic,24,green,35,True,trufts
35,1649,truth_conditions,nondistinctive,legs,generic,25,silver,45,True,ackles
35,2542,truth_conditions,bare,spots,generic,26,gold,85,True,stups
35,4224,truth_conditions,danger-distinct,legs,generic,27,pink,85,True,feps
35,2294,truth_conditions,danger-distinct,shells,generic,28,green,95,True,moxes
35,1995,truth_conditions,bare,teeth,generic,29,green,65,True,zoovs
36,18252,truth_conditions,bare,shells,generic,0,orange,55,True,luzaks
36,12733,truth_conditions,danger-distinct,legs,generic,1,yellow,95,True,ludinos
36,12117,truth_conditions,nondistinctive,stripes,generic,2,silver,25,False,frams
36,8533,truth_conditions,bare,tails,generic,3,green,65,True,trufts
36,7784,truth_conditions,bare,teeth,generic,4,blue,25,False,thups
36,10015,truth_conditions,nondistinctive,tails,generic,5,orange,5,False,zorbs
36,4650,truth_conditions,bare,stripes,generic,6,gold,95,True,daiths
36,18114,truth_conditions,bare,scales,generic,7,yellow,45,True,dorbs
36,9751,truth_conditions,nondistinctive,ears,generic,8,orange,85,True,kazzes
36,11334,truth_conditions,danger-distinct,feathers,generic,9,red,55,True,noobs
36,10467,truth_conditions,nondistinctive,spots,generic,10,red,35,False,sapers
36,10197,truth_conditions,nondistinctive,legs,generic,11,silver,95,True,ackles
36,5551,truth_conditions,bare,ears,generic,12,pink,75,True,elleps
36,19167,truth_conditions,danger-distinct,fur,generic,13,yellow,15,False,ollers
36,7732,truth_conditions,nondistinctive,teeth,generic,14,pink,55,True,krivels
36,13316,truth_conditions,danger-distinct,stripes,generic,15,copper,5,False,mooks
36,4884,truth_conditions,bare,feathers,generic,16,gold,35,False,plovs
36,6549,truth_conditions,bare,legs,generic,17,pink,5,False,feps
36,10017,truth_conditions,nondistinctive,feathers,generic,18,purple,75,True,lorches
36,12264,truth_conditions,danger-distinct,shells,generic,19,green,45,True,moxes
36,15034,truth_conditions,nondistinctive,scales,generic,20,red,45,True,blins
36,4751,truth_conditions,bare,fur,generic,21,copper,85,True,kweps
36,8498,truth_conditions,danger-distinct,scales,generic,22,blue,75,True,reesles
36,5151,truth_conditions,bare,spots,generic,23,gold,15,False,stups
36,12182,truth_conditions,danger-distinct,spots,generic,24,copper,25,True,glippets
36,17250,truth_conditions,nondistinctive,fur,generic,25,silver,15,False,morseths
36,10383,truth_conditions,danger-distinct,tails,generic,26,purple,35,False,taifels
36,10849,truth_conditions,danger-distinct,ears,generic,27,blue,85,True,cheebas
36,6915,truth_conditions,danger-distinct,teeth,generic,28,green,65,True,zoovs
36,13433,truth_conditions,nondistinctive,shells,generic,29,purple,65,True,javs
37,26665,truth_conditions,nondistinctive,scales,generic,0,yellow,75,False,dorbs
37,7387,truth_conditions,bare,teeth,generic,1,blue,35,True,thups
37,10652,truth_conditions,nondistinctive,shells,generic,2,orange,65,False,luzaks
37,7555,truth_conditions,nondistinctive,teeth,generic,3,pink,55,False,krivels
37,4585,truth_conditions,bare,tails,generic,4,purple,55,False,taifels
37,5273,truth_conditions,bare,scales,generic,5,blue,95,True,reesles
37,7517,truth_conditions,nondistinctive,spots,generic,6,gold,25,False,stups
37,9025,truth_conditions,danger-distinct,tails,generic,7,green,15,False,trufts
37,12788,truth_conditions,danger-distinct,feathers,generic,8,gold,25,True,plovs
37,4705,truth_conditions,danger-distinct,spots,generic,9,copper,95,True,glippets
37,9777,truth_conditions,danger-distinct,scales,generic,10,red,5,False,blins
37,10328,truth_conditions,nondistinctive,feathers,generic,11,red,15,False,noobs
37,6419,truth_conditions,danger-distinct,teeth,generic,12,green,85,True,zoovs
37,8809,truth_conditions,bare,legs,generic,13,pink,65,False,feps
37,5340,truth_conditions,nondistinctive,fur,generic,14,yellow,95,True,ollers
37,5605,truth_conditions,danger-distinct,shells,generic,15,green,45,False,moxes
37,4245,truth_conditions,bare,spots,generic,16,red,25,False,sapers
37,6171,truth_conditions,nondistinctive,legs,generic,17,yellow,45,False,ludinos
37,5527,truth_conditions,bare,fur,generic,18,copper,5,False,kweps
37,9876,truth_conditions,danger-distinct,stripes,generic,19,gold,35,True,daiths
37,4908,truth_conditions,bare,feathers,generic,20,purple,85,True,lorches
37,6144,truth_conditions,nondistinctive,tails,generic,21,orange,5,False,zorbs
37,11667,truth_conditions,danger-distinct,ears,generic,22,orange,55,False,kazzes
37,3987,truth_conditions,bare,shells,generic,23,purple,15,False,javs
37,8945,truth_conditions,danger-distinct,fur,generic,24,silver,65,False,morseths
37,4821,truth_conditions,danger-distinct,legs,generic,25,silver,75,True,ackles
37,4262,truth_conditions,bare,ears,generic,26,pink,75,True,elleps
37,8564,truth_conditions,nondistinctive,ears,generic,27,blue,85,True,cheebas
37,5260,truth_conditions,nondistinctive,stripes,generic,28,silver,35,False,frams
37,3764,truth_conditions,bare,stripes,generic,29,copper,45,False,mooks
38,24139,truth_conditions,nondistinctive,stripes,generic,0,copper,75,True,mooks
38,10318,truth_conditions,bare,stripes,generic,1,gold,65,True,daiths
38,13442,truth_conditions,danger-distinct,feathers,generic,2,red,75,True,noobs
38,14587,truth_conditions,danger-distinct,ears,generic,3,pink,15,True,elleps
38,9110,truth_conditions,danger-distinct,shells,generic,4,purple,5,True,javs
38,7054,truth_conditions,bare,feathers,generic,5,purple,15,True,lorches
38,11933,truth_conditions,danger-distinct,scales,generic,6,blue,55,True,reesles
38,4053,truth_conditions,bare,ears,generic,7,orange,25,True,kazzes
38,9175,truth_conditions,danger-distinct,tails,generic,8,green,25,True,trufts
38,15531,truth_conditions,nondistinctive,shells,generic,9,green,15,True,moxes
38,5740,truth_conditions,nondistinctive,tails,generic,10,orange,5,True,zorbs
38,6216,truth_conditions,danger-distinct,teeth,generic,11,green,65,True,zoovs
38,4589,truth_conditions,bare,legs,generic,12,silver,35,True,ackles
38,5134,truth_conditions,danger-distinct,fur,generic,13,yellow,35,True,ollers
38,3762,truth_conditions,bare,teeth,generic,14,pink,45,True,krivels
38,5897,truth_conditions,nondistinctive,scales,generic,15,red,95,True,blins
38,4657,truth_conditions,nondistinctive,fur,generic,16,silver,65,True,morseths
38,4131,truth_conditions,bare,shells,generic,17,orange,95,True,luzaks
38,9676,truth_conditions,nondistinctive,feathers,generic,18,gold,45,True,plovs
38,5467,truth_conditions,danger-distinct,stripes,generic,19,silver,45,True,frams
38,2489,truth_conditions,bare,scales,generic,20,yellow,5,True,dorbs
38,4659,truth_conditions,nondistinctive,ears,generic,21,blue,35,True,cheebas
38,3109,truth_conditions,bare,spots,generic,22,copper,75,True,glippets
38,4823,truth_conditions,danger-distinct,spots,generic,23,red,85,True,sapers
38,5141,truth_conditions,danger-distinct,legs,generic,24,pink,95,True,feps
38,5585,truth_conditions,bare,fur,generic,25,copper,85,True,kweps
38,4838,truth_conditions,nondistinctive,teeth,generic,26,blue,25,True,thups
38,5986,truth_conditions,nondistinctive,spots,generic,27,gold,55,True,stups
38,3559,truth_conditions,nondistinctive,legs,generic,28,yellow,85,True,ludinos
38,3849,truth_conditions,bare,tails,generic,29,purple,55,True,taifels
39,21048,truth_conditions,nondistinctive,teeth,generic,0,pink,65,True,krivels
39,14645,truth_conditions,danger-distinct,tails,generic,1,green,35,False,trufts
39,4855,truth_conditions,bare,legs,generic,2,silver,95,True,ackles
39,5863,truth_conditions,bare,ears,generic,3,pink,25,False,elleps
39,11734,truth_conditions,nondistinctive,shells,generic,4,orange,15,True,luzaks
39,5008,truth_conditions,bare,shells,generic,5,purple,65,True,javs
39,9568,truth_conditions,danger-distinct,spots,generic,6,gold,25,False,stups
39,7647,truth_conditions,bare,fur,generic,7,yellow,55,True,ollers
39,5040,truth_conditions,bare,stripes,generic,8,silver,5,False,frams
39,4152,truth_conditions,bare,scales,generic,9,blue,45,True,reesles
39,3320,truth_conditions,bare,spots,generic,10,red,85,True,sapers
39,7984,truth_conditions,danger-distinct,stripes,generic,11,copper,5,False,mooks
39,5878,truth_conditions,nondistinctive,ears,generic,12,blue,35,True,cheebas
39,7862,truth_conditions,nondistinctive,feathers,generic,13,gold,5,False,plovs
39,6351,truth_conditions,danger-distinct,ears,generic,14,orange,65,False,kazzes
39,6719,truth_conditions,danger-distinct,fur,generic,15,silver,75,True,morseths
39,3799,truth_conditions,bare,feathers,generic,16,purple,75,True,lorches
39,5319,truth_conditions,nondistinctive,fur,generic,17,copper,95,True,kweps
39,9879,truth_conditions,danger-distinct,feathers,generic,18,red,45,True,noobs
39,7327,truth_conditions,nondistinctive,tails,generic,19,orange,45,True,zorbs
39,6320,truth_conditions,danger-distinct,teeth,generic,20,green,95,True,zoovs
39,8945,truth_conditions,nondistinctive,spots,generic,21,copper,25,False,glippets
39,4614,truth_conditions,nondistinctive,scales,generic,22,red,85,True,blins
39,6135,truth_conditions,danger-distinct,legs,generic,23,pink,55,True,feps
39,9407,truth_conditions,nondistinctive,stripes,generic,24,gold,75,True,daiths
39,6296,truth_conditions,danger-distinct,scales,generic,25,yellow,85,True,dorbs
39,3728,truth_conditions,bare,teeth,generic,26,blue,15,False,thups
39,9975,truth_conditions,nondistinctive,legs,generic,27,yellow,55,True,ludinos
39,10119,truth_conditions,bare,tails,generic,28,purple,35,False,taifels
39,7001,truth_conditions,danger-distinct,shells,generic,29,green,15,False,moxes
40,23062,truth_conditions,danger-distinct,tails,generic,0,purple,85,True,taifels
40,7072,truth_conditions,nondistinctive,legs,generic,1,yellow,45,True,ludinos
40,4119,truth_conditions,nondistinctive,spots,generic,2,copper,85,True,glippets
40,3018,truth_conditions,danger-distinct,feathers,generic,3,gold,35,True,plovs
40,5136,truth_conditions,nondistinctive,shells,generic,4,purple,15,True,javs
40,2576,truth_conditions,danger-distinct,shells,generic,5,orange,25,True,luzaks
40,2494,truth_conditions,bare,stripes,generic,6,copper,55,True,mooks
40,5239,truth_conditions,nondistinctive,ears,generic,7,blue,55,True,cheebas
40,3023,truth_conditions,bare,spots,generic,8,gold,25,True,stups
40,2810,truth_conditions,danger-distinct,fur,generic,9,silver,75,True,morseths
40,3197,truth_conditions,bare,ears,generic,10,pink,95,True,elleps
40,4915,truth_conditions,nondistinctive,stripes,generic,11,gold,5,True,daiths
40,2882,truth_conditions,nondistinctive,scales,generic,12,red,25,True,blins
40,3087,truth_conditions,bare,teeth,generic,13,blue,35,True,thups
40,4088,truth_conditions,bare,shells,generic,14,green,65,True,moxes
40,3684,truth_conditions,nondistinctive,feathers,generic,15,purple,75,True,lorches
40,2921,truth_conditions,bare,feathers,generic,16,red,5,True,noobs
40,3504,truth_conditions,nondistinctive,fur,generic,17,yellow,35,True,ollers
40,7833,truth_conditions,bare,scales,generic,18,blue,15,True,reesles
40,6331,truth_conditions,danger-distinct,legs,generic,19,pink,55,True,feps
40,4328,truth_conditions,nondistinctive,tails,generic,20,green,65,True,trufts
40,9269,truth_conditions,danger-distinct,spots,generic,21,red,15,True,sapers
40,5089,truth_conditions,danger-distinct,stripes,generic,22,silver,95,True,frams
40,2956,truth_conditions,bare,fur,generic,23,copper,45,True,kweps
40,3074,truth_conditions,danger-distinct,scales,generic,24,yellow,65,True,dorbs
40,16870,truth_conditions,bare,legs,generic,25,silver,85,True,ackles
40,19251,truth_conditions,nondistinctive,teeth,generic,26,pink,95,True,krivels
40,3710,truth_conditions,danger-distinct,ears,generic,27,orange,5,True,kazzes
40,2095,truth_conditions,danger-distinct,teeth,generic,28,green,45,True,zoovs
40,1932,truth_conditions,bare,tails,generic,29,orange,75,True,zorbs
41,14586,truth_conditions,danger-distinct,tails,generic,0,green,75,False,trufts
41,10979,truth_conditions,danger-distinct,feathers,generic,1,red,95,True,noobs
41,12387,truth_conditions,nondistinctive,tails,generic,2,orange,55,True,zorbs
41,8103,truth_conditions,danger-distinct,fur,generic,3,yellow,65,True,ollers
41,7431,truth_conditions,bare,feathers,generic,4,gold,5,False,plovs
41,10424,truth_conditions,danger-distinct,stripes,generic,5,silver,45,True,frams
41,20955,truth_conditions,nondistinctive,shells,generic,6,purple,25,True,javs
41,21866,truth_conditions,danger-distinct,spots,generic,7,gold,35,True,stups
41,6617,truth_conditions,nondistinctive,ears,generic,8,blue,85,True,cheebas
41,4047,truth_conditions,bare,scales,generic,9,red,85,True,blins
41,9916,truth_conditions,nondistinctive,stripes,generic,10,gold,75,True,daiths
41,4239,truth_conditions,bare,teeth,generic,11,pink,15,False,krivels
41,6041,truth_conditions,nondistinctive,fur,generic,12,copper,65,True,kweps
41,7062,truth_conditions,bare,spots,generic,13,red,45,False,sapers
41,3645,truth_conditions,bare,fur,generic,14,silver,55,True,morseths
41,2561,truth_conditions,bare,legs,generic,15,silver,75,True,ackles
41,9695,truth_conditions,nondistinctive,teeth,generic,16,blue,95,True,thups
41,13149,truth_conditions,danger-distinct,shells,generic,17,orange,15,True,luzaks
41,9755,truth_conditions,danger-distinct,legs,generic,18,pink,55,True,feps
41,8713,truth_conditions,danger-distinct,ears,generic,19,pink,25,True,elleps
41,8192,truth_conditions,nondistinctive,legs,generic,20,yellow,5,False,ludinos
41,13480,truth_conditions,bare,tails,generic,21,purple,35,False,taifels
41,3784,truth_conditions,bare,ears,generic,22,orange,95,True,kazzes
41,6977,truth_conditions,danger-distinct,scales,generic,23,yellow,85,True,dorbs
41,4441,truth_conditions,nondistinctive,scales,generic,24,blue,15,False,reesles
41,17059,truth_conditions,danger-distinct,teeth,generic,25,green,5,False,zoovs
41,6049,truth_conditions,bare,stripes,generic,26,copper,65,True,mooks
41,6346,truth_conditions,nondistinctive,spots,generic,27,copper,45,False,glippets
41,3968,truth_conditions,bare,shells,generic,28,green,25,False,moxes
41,8259,truth_conditions,nondistinctive,feathers,generic,29,purple,35,False,lorches
42,10579,truth_conditions,danger-distinct,shells,generic,0,orange,85,True,luzaks
42,11169,truth_conditions,danger-distinct,ears,generic,1,blue,35,True,cheebas
42,13286,truth_conditions,danger-distinct,fur,generic,2,yellow,95,True,ollers
42,7799,truth_conditions,danger-distinct,stripes,generic,3,gold,45,True,daiths
42,4475,truth_conditions,bare,spots,generic,4,gold,95,True,stups
42,8571,truth_conditions,danger-distinct,legs,generic,5,silver,15,True,ackles
42,7486,truth_conditions,nondistinctive,spots,generic,6,red,75,True,sapers
42,4415,truth_conditions,bare,ears,generic,7,orange,85,True,kazzes
42,9760,truth_conditions,nondistinctive,feathers,generic,8,red,85,True,noobs
42,8304,truth_conditions,nondistinctive,stripes,generic,9,copper,15,True,mooks
42,3889,truth_conditions,bare,feathers,generic,10,purple,15,True,lorches
42,7022,truth_conditions,danger-distinct,teeth,generic,11,pink,25,True,krivels
42,5152,truth_conditions,danger-distinct,scales,generic,12,red,75,True,blins
42,8127,truth_conditions,nondistinctive,teeth,generic,13,blue,65,True,thups
42,6783,truth_conditions,danger-distinct,spots,generic,14,copper,55,True,glippets
42,3920,truth_conditions,bare,teeth,generic,15,green,25,True,zoovs
42,8256,truth_conditions,nondistinctive,ears,generic,16,pink,25,True,elleps
42,5447,truth_conditions,bare,tails,generic,17,green,65,True,trufts
42,10422,truth_conditions,danger-distinct,feathers,generic,18,gold,65,True,plovs
42,2970,truth_conditions,bare,shells,generic,19,green,5,True,moxes
42,8671,truth_conditions,nondistinctive,scales,generic,20,yellow,55,True,dorbs
42,4425,truth_conditions,nondistinctive,shells,generic,21,purple,95,True,javs
42,3166,truth_conditions,bare,legs,generic,22,pink,35,True,feps
42,5657,truth_conditions,nondistinctive,tails,generic,23,orange,35,True,zorbs
42,4080,truth_conditions,bare,scales,generic,24,blue,55,True,reesles
42,3231,truth_conditions,bare,fur,generic,25,copper,45,True,kweps
42,10479,truth_conditions,nondistinctive,legs,generic,26,yellow,45,True,ludinos
42,3984,truth_conditions,bare,stripes,generic,27,silver,75,True,frams
42,9887,truth_conditions,nondistinctive,fur,generic,28,silver,5,True,morseths
42,7192,truth_conditions,danger-distinct,tails,generic,29,purple,5,True,taifels
43,13278,truth_conditions,danger-distinct,fur,generic,0,silver,45,True,morseths
43,5581,truth_conditions,bare,feathers,generic,1,gold,95,True,plovs
43,6666,truth_conditions,danger-distinct,stripes,generic,2,gold,85,True,daiths
43,6788,truth_conditions,danger-distinct,feathers,generic,3,red,5,False,noobs
43,7278,truth_conditions,bare,shells,generic,4,green,35,False,moxes
43,6835,truth_conditions,nondistinctive,fur,generic,5,copper,15,False,kweps
43,4762,truth_conditions,danger-distinct,legs,generic,6,silver,35,False,ackles
43,3839,truth_conditions,danger-distinct,tails,generic,7,green,95,True,trufts
43,4294,truth_conditions,bare,stripes,generic,8,silver,55,True,frams
43,3940,truth_conditions,nondistinctive,legs,generic,9,yellow,55,True,ludinos
43,4231,truth_conditions,nondistinctive,stripes,generic,10,copper,75,True,mooks
43,8107,truth_conditions,nondistinctive,feathers,generic,11,purple,45,True,lorches
43,3685,truth_conditions,bare,tails,generic,12,purple,75,True,taifels
43,2582,truth_conditions,bare,spots,generic,13,copper,85,True,glippets
43,2362,truth_conditions,bare,fur,generic,14,yellow,65,True,ollers
43,4113,truth_conditions,nondistinctive,spots,generic,15,red,5,False,sapers
43,4352,truth_conditions,nondistinctive,shells,generic,16,orange,65,True,luzaks
43,4749,truth_conditions,nondistinctive,ears,generic,17,pink,85,True,elleps
43,3814,truth_conditions,danger-distinct,scales,generic,18,yellow,55,True,dorbs
43,3814,truth_conditions,bare,legs,generic,19,pink,15,False,feps
43,4084,truth_conditions,bare,teeth,generic,20,pink,45,True,krivels
43,4031,truth_conditions,danger-distinct,ears,generic,21,orange,15,False,kazzes
43,3423,truth_conditions,nondistinctive,tails,generic,22,orange,35,False,zorbs
43,3947,truth_conditions,nondistinctive,scales,generic,23,red,95,True,blins
43,3390,truth_conditions,bare,ears,generic,24,blue,5,False,cheebas
