workerid	rt	trial_type	stim_type	trial_num	stim_determiner	trialNum	stim_color	stim_prevalence	stim_part	response	stim_category
0	6348	implied_prevalence	bare	0	most	NA	yellow	NA	scales	80	dorbs
0	4066	implied_prevalence	bare	1	generic	NA	pink	NA	ears	100	elleps
0	3751	implied_prevalence	bare	2	most	NA	silver	NA	stripes	80	frams
0	3532	implied_prevalence	bare	3	most	NA	purple	NA	shells	80	javs
0	2768	implied_prevalence	bare	4	most	NA	orange	NA	ears	80	kazzes
0	2466	implied_prevalence	bare	5	generic	NA	purple	NA	tails	100	taifels
0	3248	implied_prevalence	bare	6	some	NA	yellow	NA	legs	40	ludinos
0	3985	implied_prevalence	bare	7	most	NA	pink	NA	legs	80	feps
0	2134	implied_prevalence	bare	8	most	NA	copper	NA	fur	80	kweps
0	2282	implied_prevalence	bare	9	generic	NA	red	NA	spots	100	sapers
0	2800	implied_prevalence	bare	10	some	NA	orange	NA	tails	40	zorbs
0	2515	implied_prevalence	bare	11	generic	NA	gold	NA	feathers	100	plovs
0	2305	implied_prevalence	bare	12	generic	NA	blue	NA	scales	100	reesles
0	2466	implied_prevalence	bare	13	some	NA	copper	NA	spots	40	glippets
0	2910	implied_prevalence	bare	14	generic	NA	green	NA	teeth	100	zoovs
0	3338	implied_prevalence	bare	15	some	NA	red	NA	scales	40	blins
0	2584	implied_prevalence	bare	16	some	NA	silver	NA	fur	40	morseths
0	2316	implied_prevalence	bare	17	some	NA	gold	NA	stripes	40	daiths
0	2685	implied_prevalence	bare	18	some	NA	blue	NA	ears	40	cheebas
0	3063	implied_prevalence	bare	19	most	NA	blue	NA	teeth	80	thups
0	4016	implied_prevalence	bare	20	some	NA	pink	NA	teeth	40	krivels
0	2353	implied_prevalence	bare	21	most	NA	gold	NA	spots	80	stups
0	2250	implied_prevalence	bare	22	generic	NA	yellow	NA	fur	100	ollers
0	2683	implied_prevalence	bare	23	some	NA	purple	NA	feathers	40	lorches
0	2236	implied_prevalence	bare	24	generic	NA	orange	NA	shells	100	luzaks
0	2332	implied_prevalence	bare	25	generic	NA	copper	NA	stripes	100	mooks
0	4884	implied_prevalence	bare	26	most	NA	red	NA	feathers	80	noobs
0	1963	implied_prevalence	bare	27	some	NA	green	NA	shells	40	moxes
0	2084	implied_prevalence	bare	28	most	NA	green	NA	tails	80	trufts
0	2033	implied_prevalence	bare	29	generic	NA	silver	NA	legs	100	ackles
1	11993	implied_prevalence	bare	0	generic	NA	purple	NA	tails	100	taifels
1	4023	implied_prevalence	bare	1	generic	NA	orange	NA	shells	100	luzaks
1	5571	implied_prevalence	bare	2	most	NA	blue	NA	teeth	70	thups
1	17079	implied_prevalence	bare	3	generic	NA	copper	NA	stripes	100	mooks
1	3711	implied_prevalence	bare	4	most	NA	pink	NA	legs	80	feps
1	5868	implied_prevalence	bare	5	some	NA	green	NA	shells	50	moxes
1	3069	implied_prevalence	bare	6	generic	NA	yellow	NA	fur	100	ollers
1	4260	implied_prevalence	bare	7	most	NA	copper	NA	fur	80	kweps
1	3609	implied_prevalence	bare	8	most	NA	purple	NA	shells	75	javs
1	4065	implied_prevalence	bare	9	some	NA	pink	NA	teeth	47	krivels
1	3234	implied_prevalence	bare	10	generic	NA	blue	NA	scales	100	reesles
1	3297	implied_prevalence	bare	11	some	NA	yellow	NA	legs	50	ludinos
1	2011	implied_prevalence	bare	12	some	NA	red	NA	scales	50	blins
1	2721	implied_prevalence	bare	13	generic	NA	red	NA	spots	100	sapers
1	4113	implied_prevalence	bare	14	most	NA	gold	NA	spots	75	stups
1	3662	implied_prevalence	bare	15	generic	NA	green	NA	teeth	100	zoovs
1	2852	implied_prevalence	bare	16	some	NA	orange	NA	tails	45	zorbs
1	1448	implied_prevalence	bare	17	some	NA	silver	NA	fur	45	morseths
1	1559	implied_prevalence	bare	18	some	NA	blue	NA	ears	45	cheebas
1	2547	implied_prevalence	bare	19	generic	NA	gold	NA	feathers	100	plovs
1	2350	implied_prevalence	bare	20	some	NA	purple	NA	feathers	45	lorches
1	2457	implied_prevalence	bare	21	generic	NA	silver	NA	legs	10	ackles
1	6406	implied_prevalence	bare	22	most	NA	orange	NA	ears	80	kazzes
1	3167	implied_prevalence	bare	23	most	NA	red	NA	feathers	75	noobs
1	2615	implied_prevalence	bare	24	generic	NA	pink	NA	ears	100	elleps
1	2853	implied_prevalence	bare	25	most	NA	green	NA	tails	75	trufts
1	1927	implied_prevalence	bare	26	most	NA	silver	NA	stripes	75	frams
1	3767	implied_prevalence	bare	27	some	NA	copper	NA	spots	45	glippets
1	1856	implied_prevalence	bare	28	some	NA	gold	NA	stripes	45	daiths
1	2459	implied_prevalence	bare	29	most	NA	yellow	NA	scales	76	dorbs
2	5669	implied_prevalence	bare	0	some	NA	blue	NA	ears	30	cheebas
2	4850	implied_prevalence	bare	1	some	NA	purple	NA	feathers	30	lorches
2	3687	implied_prevalence	bare	2	some	NA	copper	NA	spots	25	glippets
2	3835	implied_prevalence	bare	3	most	NA	gold	NA	spots	80	stups
2	3507	implied_prevalence	bare	4	most	NA	red	NA	feathers	75	noobs
2	2984	implied_prevalence	bare	5	some	NA	gold	NA	stripes	40	daiths
2	3718	implied_prevalence	bare	6	generic	NA	gold	NA	feathers	100	plovs
2	2328	implied_prevalence	bare	7	generic	NA	green	NA	teeth	100	zoovs
2	3023	implied_prevalence	bare	8	generic	NA	pink	NA	ears	100	elleps
2	2162	implied_prevalence	bare	9	generic	NA	copper	NA	stripes	100	mooks
2	3960	implied_prevalence	bare	10	most	NA	purple	NA	shells	85	javs
2	2530	implied_prevalence	bare	11	generic	NA	blue	NA	scales	100	reesles
2	3047	implied_prevalence	bare	12	most	NA	silver	NA	stripes	80	frams
2	2257	implied_prevalence	bare	13	some	NA	red	NA	scales	30	blins
2	2037	implied_prevalence	bare	14	some	NA	orange	NA	tails	30	zorbs
2	2905	implied_prevalence	bare	15	generic	NA	red	NA	spots	100	sapers
2	2236	implied_prevalence	bare	16	some	NA	green	NA	shells	30	moxes
2	2040	implied_prevalence	bare	17	most	NA	yellow	NA	scales	80	dorbs
2	2787	implied_prevalence	bare	18	some	NA	pink	NA	teeth	35	krivels
2	2323	implied_prevalence	bare	19	generic	NA	yellow	NA	fur	100	ollers
2	2221	implied_prevalence	bare	20	some	NA	silver	NA	fur	35	morseths
2	3671	implied_prevalence	bare	21	most	NA	blue	NA	teeth	75	thups
2	2093	implied_prevalence	bare	22	generic	NA	purple	NA	tails	100	taifels
2	2609	implied_prevalence	bare	23	most	NA	pink	NA	legs	80	feps
2	2993	implied_prevalence	bare	24	generic	NA	silver	NA	legs	100	ackles
2	1851	implied_prevalence	bare	25	most	NA	copper	NA	fur	80	kweps
2	2214	implied_prevalence	bare	26	some	NA	yellow	NA	legs	30	ludinos
2	2090	implied_prevalence	bare	27	generic	NA	orange	NA	shells	100	luzaks
2	1874	implied_prevalence	bare	28	most	NA	orange	NA	ears	80	kazzes
2	1523	implied_prevalence	bare	29	most	NA	green	NA	tails	80	trufts
3	5388	truth_conditions	bare	NA	most	0	red	90	spots	True	sapers
3	6417	truth_conditions	bare	NA	generic	1	yellow	10	legs	False	ludinos
3	5232	truth_conditions	bare	NA	generic	2	copper	70	spots	False	glippets
3	5266	truth_conditions	bare	NA	some	3	orange	30	ears	True	kazzes
3	4401	truth_conditions	bare	NA	generic	4	blue	90	ears	False	cheebas
3	4149	truth_conditions	bare	NA	most	5	copper	10	stripes	False	mooks
3	5300	truth_conditions	bare	NA	most	6	pink	50	ears	True	elleps
3	2749	truth_conditions	bare	NA	some	7	copper	50	fur	True	kweps
3	2452	truth_conditions	bare	NA	some	8	yellow	30	scales	True	dorbs
3	2116	truth_conditions	bare	NA	some	9	gold	10	spots	True	stups
3	7548	truth_conditions	bare	NA	some	10	pink	50	legs	True	feps
3	2719	truth_conditions	bare	NA	most	11	purple	10	tails	False	taifels
3	3001	truth_conditions	bare	NA	most	12	orange	70	shells	True	luzaks
3	2666	truth_conditions	bare	NA	most	13	blue	30	scales	False	reesles
3	2652	truth_conditions	bare	NA	some	14	silver	90	stripes	True	frams
3	2163	truth_conditions	bare	NA	most	15	yellow	10	fur	False	ollers
3	2333	truth_conditions	bare	NA	some	16	red	10	feathers	True	noobs
3	2899	truth_conditions	bare	NA	most	17	green	30	teeth	False	zoovs
3	2051	truth_conditions	bare	NA	most	18	gold	90	feathers	True	plovs
3	2966	truth_conditions	bare	NA	generic	19	green	30	shells	False	moxes
3	2450	truth_conditions	bare	NA	generic	20	orange	10	tails	False	zorbs
3	2631	truth_conditions	bare	NA	generic	21	silver	10	fur	False	morseths
3	3585	truth_conditions	bare	NA	most	22	silver	70	legs	True	ackles
3	2016	truth_conditions	bare	NA	some	23	green	30	tails	True	trufts
3	4284	truth_conditions	bare	NA	generic	24	red	90	scales	False	blins
3	2568	truth_conditions	bare	NA	some	25	blue	70	teeth	True	thups
3	2616	truth_conditions	bare	NA	generic	26	gold	50	stripes	False	daiths
3	2299	truth_conditions	bare	NA	generic	27	purple	30	feathers	False	lorches
3	1834	truth_conditions	bare	NA	generic	28	pink	90	teeth	False	krivels
3	2116	truth_conditions	bare	NA	some	29	purple	10	shells	True	javs
4	17606	implied_prevalence	bare	0	some	NA	yellow	NA	legs	40	ludinos
4	5415	implied_prevalence	bare	1	generic	NA	silver	NA	stripes	100	frams
4	6767	implied_prevalence	bare	2	some	NA	gold	NA	stripes	40	daiths
4	4640	implied_prevalence	bare	3	generic	NA	green	NA	tails	100	trufts
4	3960	implied_prevalence	bare	4	some	NA	copper	NA	spots	40	glippets
4	9192	implied_prevalence	bare	5	most	NA	red	NA	spots	90	sapers
4	4055	implied_prevalence	bare	6	some	NA	purple	NA	feathers	40	lorches
4	2752	implied_prevalence	bare	7	some	NA	red	NA	scales	40	blins
4	4952	implied_prevalence	bare	8	most	NA	gold	NA	feathers	90	plovs
4	2200	implied_prevalence	bare	9	most	NA	orange	NA	shells	90	luzaks
4	3152	implied_prevalence	bare	10	generic	NA	yellow	NA	scales	100	dorbs
4	5223	implied_prevalence	bare	11	some	NA	green	NA	shells	40	moxes
4	4000	implied_prevalence	bare	12	most	NA	green	NA	teeth	90	zoovs
4	4088	implied_prevalence	bare	13	most	NA	pink	NA	ears	90	elleps
4	3472	implied_prevalence	bare	14	most	NA	copper	NA	stripes	90	mooks
4	3399	implied_prevalence	bare	15	most	NA	purple	NA	tails	90	taifels
4	3032	implied_prevalence	bare	16	generic	NA	purple	NA	shells	100	javs
4	6368	implied_prevalence	bare	17	some	NA	pink	NA	teeth	40	krivels
4	3096	implied_prevalence	bare	18	generic	NA	orange	NA	ears	100	kazzes
4	2919	implied_prevalence	bare	19	generic	NA	blue	NA	teeth	100	thups
4	3032	implied_prevalence	bare	20	most	NA	blue	NA	scales	90	reesles
4	2616	implied_prevalence	bare	21	most	NA	yellow	NA	fur	90	ollers
4	3096	implied_prevalence	bare	22	some	NA	silver	NA	fur	40	morseths
4	4392	implied_prevalence	bare	23	some	NA	orange	NA	tails	40	zorbs
4	2688	implied_prevalence	bare	24	generic	NA	gold	NA	spots	100	stups
4	3247	implied_prevalence	bare	25	generic	NA	red	NA	feathers	100	noobs
4	3112	implied_prevalence	bare	26	generic	NA	copper	NA	fur	100	kweps
4	3272	implied_prevalence	bare	27	most	NA	silver	NA	legs	90	ackles
4	3224	implied_prevalence	bare	28	some	NA	blue	NA	ears	40	cheebas
4	2600	implied_prevalence	bare	29	generic	NA	pink	NA	legs	100	feps
5	5407	implied_prevalence	bare	0	generic	NA	yellow	NA	scales	100	dorbs
5	6012	implied_prevalence	bare	1	most	NA	pink	NA	teeth	80	krivels
5	6702	implied_prevalence	bare	2	some	NA	orange	NA	shells	30	luzaks
5	20944	implied_prevalence	bare	3	generic	NA	red	NA	feathers	100	noobs
5	6585	implied_prevalence	bare	4	most	NA	blue	NA	ears	70	cheebas
5	5947	implied_prevalence	bare	5	some	NA	green	NA	teeth	30	zoovs
5	7676	implied_prevalence	bare	6	generic	NA	copper	NA	fur	99	kweps
5	30304	implied_prevalence	bare	7	generic	NA	silver	NA	stripes	99	frams
5	4130	implied_prevalence	bare	8	generic	NA	green	NA	tails	100	trufts
5	5788	implied_prevalence	bare	9	generic	NA	orange	NA	ears	98	kazzes
5	3267	implied_prevalence	bare	10	most	NA	silver	NA	fur	70	morseths
5	3016	implied_prevalence	bare	11	generic	NA	blue	NA	teeth	99	thups
5	7963	implied_prevalence	bare	12	some	NA	gold	NA	feathers	30	plovs
5	3267	implied_prevalence	bare	13	generic	NA	gold	NA	spots	99	stups
5	4637	implied_prevalence	bare	14	most	NA	copper	NA	spots	70	glippets
5	4033	implied_prevalence	bare	15	most	NA	gold	NA	stripes	70	daiths
5	4626	implied_prevalence	bare	16	some	NA	silver	NA	legs	20	ackles
5	7278	implied_prevalence	bare	17	most	NA	yellow	NA	legs	75	ludinos
5	4786	implied_prevalence	bare	18	some	NA	yellow	NA	fur	20	ollers
5	2759	implied_prevalence	bare	19	generic	NA	pink	NA	legs	99	feps
5	3821	implied_prevalence	bare	20	most	NA	purple	NA	feathers	80	lorches
5	7148	implied_prevalence	bare	21	some	NA	red	NA	spots	30	sapers
5	22385	implied_prevalence	bare	22	some	NA	copper	NA	stripes	30	mooks
5	5517	implied_prevalence	bare	23	some	NA	purple	NA	tails	25	taifels
5	2448	implied_prevalence	bare	24	some	NA	pink	NA	ears	30	elleps
5	3132	implied_prevalence	bare	25	some	NA	blue	NA	scales	30	reesles
5	4513	implied_prevalence	bare	26	most	NA	orange	NA	tails	99	zorbs
5	9660	implied_prevalence	bare	27	most	NA	green	NA	shells	75	moxes
5	9922	implied_prevalence	bare	28	generic	NA	purple	NA	shells	99	javs
5	10212	implied_prevalence	bare	29	most	NA	red	NA	scales	75	blins
6	9037	truth_conditions	bare	NA	most	0	red	30	feathers	False	noobs
6	9685	truth_conditions	bare	NA	generic	1	purple	10	feathers	True	lorches
6	6018	truth_conditions	bare	NA	generic	2	green	10	shells	True	moxes
6	5831	truth_conditions	bare	NA	generic	3	pink	30	teeth	False	krivels
6	3872	truth_conditions	bare	NA	most	4	copper	70	fur	True	kweps
6	4338	truth_conditions	bare	NA	most	5	gold	10	spots	False	stups
6	6391	truth_conditions	bare	NA	some	6	purple	10	tails	True	taifels
6	6299	truth_conditions	bare	NA	generic	7	copper	50	spots	True	glippets
6	6718	truth_conditions	bare	NA	generic	8	silver	30	fur	False	morseths
6	4382	truth_conditions	bare	NA	some	9	green	70	teeth	True	zoovs
6	4204	truth_conditions	bare	NA	some	10	silver	30	legs	True	ackles
6	4826	truth_conditions	bare	NA	some	11	gold	50	feathers	True	plovs
6	4506	truth_conditions	bare	NA	some	12	orange	10	shells	True	luzaks
6	6082	truth_conditions	bare	NA	most	13	pink	90	legs	True	feps
6	4206	truth_conditions	bare	NA	most	14	blue	70	teeth	True	thups
6	3462	truth_conditions	bare	NA	most	15	purple	10	shells	False	javs
6	5512	truth_conditions	bare	NA	some	16	blue	10	scales	True	reesles
6	4238	truth_conditions	bare	NA	some	17	copper	70	stripes	True	mooks
6	6347	truth_conditions	bare	NA	some	18	red	50	spots	True	sapers
6	5279	truth_conditions	bare	NA	some	19	pink	70	ears	True	elleps
6	6156	truth_conditions	bare	NA	generic	20	gold	70	stripes	True	daiths
6	4215	truth_conditions	bare	NA	most	21	orange	50	ears	False	kazzes
6	7633	truth_conditions	bare	NA	most	22	green	70	tails	True	trufts
6	3918	truth_conditions	bare	NA	most	23	silver	90	stripes	True	frams
6	3113	truth_conditions	bare	NA	generic	24	orange	90	tails	True	zorbs
6	4196	truth_conditions	bare	NA	generic	25	yellow	90	legs	True	ludinos
6	4910	truth_conditions	bare	NA	most	26	yellow	30	scales	False	dorbs
6	5296	truth_conditions	bare	NA	generic	27	blue	50	ears	False	cheebas
6	3076	truth_conditions	bare	NA	some	28	yellow	50	fur	True	ollers
6	3726	truth_conditions	bare	NA	generic	29	red	50	scales	False	blins
7	6269	truth_conditions	bare	NA	some	0	orange	90	shells	False	luzaks
7	2809	truth_conditions	bare	NA	generic	1	copper	10	spots	False	glippets
7	1854	truth_conditions	bare	NA	some	2	red	30	spots	False	sapers
7	4451	truth_conditions	bare	NA	most	3	gold	50	spots	False	stups
7	2211	truth_conditions	bare	NA	generic	4	green	30	shells	True	moxes
7	3827	truth_conditions	bare	NA	some	5	yellow	10	fur	True	ollers
7	2064	truth_conditions	bare	NA	some	6	blue	90	scales	True	reesles
7	2290	truth_conditions	bare	NA	most	7	green	90	tails	True	trufts
7	1979	truth_conditions	bare	NA	generic	8	pink	90	teeth	True	krivels
7	3058	truth_conditions	bare	NA	generic	9	red	50	scales	True	blins
7	2753	truth_conditions	bare	NA	some	10	gold	90	feathers	True	plovs
7	2818	truth_conditions	bare	NA	most	11	purple	50	shells	False	javs
7	2628	truth_conditions	bare	NA	most	12	pink	90	legs	True	feps
7	1863	truth_conditions	bare	NA	most	13	blue	50	teeth	False	thups
7	2277	truth_conditions	bare	NA	some	14	green	10	teeth	True	zoovs
7	1766	truth_conditions	bare	NA	generic	15	silver	70	fur	True	morseths
7	1307	truth_conditions	bare	NA	generic	16	blue	70	ears	True	cheebas
7	1439	truth_conditions	bare	NA	most	17	orange	90	ears	True	kazzes
7	1296	truth_conditions	bare	NA	most	18	red	70	feathers	True	noobs
7	3265	truth_conditions	bare	NA	generic	19	purple	50	feathers	True	lorches
7	2207	truth_conditions	bare	NA	some	20	copper	90	stripes	True	mooks
7	1669	truth_conditions	bare	NA	some	21	silver	70	legs	True	ackles
7	1653	truth_conditions	bare	NA	generic	22	gold	30	stripes	True	daiths
7	1849	truth_conditions	bare	NA	most	23	silver	50	stripes	False	frams
7	2279	truth_conditions	bare	NA	most	24	yellow	10	scales	False	dorbs
7	2916	truth_conditions	bare	NA	most	25	copper	70	fur	True	kweps
7	1284	truth_conditions	bare	NA	generic	26	orange	70	tails	True	zorbs
7	2405	truth_conditions	bare	NA	some	27	purple	50	tails	True	taifels
7	1812	truth_conditions	bare	NA	generic	28	yellow	90	legs	True	ludinos
7	1380	truth_conditions	bare	NA	some	29	pink	30	ears	True	elleps
8	7356	truth_conditions	bare	NA	generic	0	blue	10	ears	False	cheebas
8	2980	truth_conditions	bare	NA	most	1	yellow	90	scales	True	dorbs
8	3267	truth_conditions	bare	NA	some	2	gold	50	feathers	True	plovs
8	3526	truth_conditions	bare	NA	most	3	gold	30	spots	False	stups
8	3672	truth_conditions	bare	NA	most	4	blue	90	teeth	True	thups
8	3870	truth_conditions	bare	NA	most	5	orange	50	ears	False	kazzes
8	1749	truth_conditions	bare	NA	some	6	yellow	70	fur	True	ollers
8	3392	truth_conditions	bare	NA	generic	7	gold	50	stripes	False	daiths
8	4375	truth_conditions	bare	NA	generic	8	purple	30	feathers	False	lorches
8	1993	truth_conditions	bare	NA	some	9	pink	30	ears	True	elleps
8	2782	truth_conditions	bare	NA	generic	10	silver	10	fur	False	morseths
8	2141	truth_conditions	bare	NA	some	11	orange	70	shells	True	luzaks
8	2057	truth_conditions	bare	NA	some	12	green	50	teeth	True	zoovs
8	1992	truth_conditions	bare	NA	some	13	blue	10	scales	True	reesles
8	1912	truth_conditions	bare	NA	some	14	copper	90	stripes	True	mooks
8	1603	truth_conditions	bare	NA	most	15	purple	50	shells	False	javs
8	2752	truth_conditions	bare	NA	most	16	red	50	feathers	False	noobs
8	2359	truth_conditions	bare	NA	most	17	pink	30	legs	False	feps
8	1795	truth_conditions	bare	NA	generic	18	red	30	scales	False	blins
8	1782	truth_conditions	bare	NA	generic	19	yellow	10	legs	False	ludinos
8	1650	truth_conditions	bare	NA	generic	20	copper	10	spots	False	glippets
8	1460	truth_conditions	bare	NA	most	21	green	90	tails	True	trufts
8	1750	truth_conditions	bare	NA	most	22	copper	10	fur	False	kweps
8	2019	truth_conditions	bare	NA	generic	23	pink	90	teeth	False	krivels
8	1450	truth_conditions	bare	NA	most	24	silver	90	stripes	True	frams
8	1824	truth_conditions	bare	NA	some	25	red	10	spots	True	sapers
8	1749	truth_conditions	bare	NA	some	26	silver	70	legs	True	ackles
8	1430	truth_conditions	bare	NA	generic	27	green	50	shells	False	moxes
8	3265	truth_conditions	bare	NA	generic	28	orange	30	tails	False	zorbs
8	3634	truth_conditions	bare	NA	some	29	purple	30	tails	True	taifels
9	10829	implied_prevalence	bare	0	most	NA	orange	NA	shells	80	luzaks
9	6543	implied_prevalence	bare	1	most	NA	purple	NA	tails	80	taifels
9	8087	implied_prevalence	bare	2	most	NA	green	NA	teeth	80	zoovs
9	8176	implied_prevalence	bare	3	some	NA	orange	NA	ears	50	kazzes
9	6472	implied_prevalence	bare	4	some	NA	green	NA	tails	50	trufts
9	6072	implied_prevalence	bare	5	most	NA	copper	NA	stripes	80	mooks
9	4640	implied_prevalence	bare	6	most	NA	silver	NA	legs	80	ackles
9	4064	implied_prevalence	bare	7	most	NA	red	NA	spots	80	sapers
9	4727	implied_prevalence	bare	8	most	NA	pink	NA	ears	80	elleps
9	5376	implied_prevalence	bare	9	some	NA	purple	NA	shells	50	javs
9	4664	implied_prevalence	bare	10	some	NA	silver	NA	stripes	50	frams
9	9295	implied_prevalence	bare	11	most	NA	blue	NA	scales	80	reesles
9	4953	implied_prevalence	bare	12	some	NA	yellow	NA	scales	50	dorbs
9	5151	implied_prevalence	bare	13	generic	NA	pink	NA	teeth	100	krivels
9	4743	implied_prevalence	bare	14	some	NA	pink	NA	legs	50	feps
9	5288	implied_prevalence	bare	15	generic	NA	copper	NA	spots	100	glippets
9	5201	implied_prevalence	bare	16	generic	NA	red	NA	scales	100	blins
9	7326	implied_prevalence	bare	17	some	NA	red	NA	feathers	50	noobs
9	6040	implied_prevalence	bare	18	generic	NA	yellow	NA	legs	100	ludinos
9	5137	implied_prevalence	bare	19	generic	NA	silver	NA	fur	100	morseths
9	6230	implied_prevalence	bare	20	generic	NA	blue	NA	ears	100	cheebas
9	6840	implied_prevalence	bare	21	generic	NA	purple	NA	feathers	100	lorches
9	5864	implied_prevalence	bare	22	generic	NA	orange	NA	tails	100	zorbs
9	7095	implied_prevalence	bare	23	some	NA	blue	NA	teeth	50	thups
9	6288	implied_prevalence	bare	24	generic	NA	gold	NA	stripes	100	daiths
9	6927	implied_prevalence	bare	25	most	NA	gold	NA	feathers	80	plovs
9	4839	implied_prevalence	bare	26	generic	NA	green	NA	shells	100	moxes
9	6591	implied_prevalence	bare	27	most	NA	yellow	NA	fur	80	ollers
9	5690	implied_prevalence	bare	28	some	NA	gold	NA	spots	50	stups
9	4967	implied_prevalence	bare	29	some	NA	copper	NA	fur	50	kweps
10	10593	implied_prevalence	bare	0	generic	NA	copper	NA	stripes	99	mooks
10	7893	implied_prevalence	bare	1	most	NA	purple	NA	feathers	80	lorches
10	7434	implied_prevalence	bare	2	some	NA	silver	NA	stripes	40	frams
10	4602	implied_prevalence	bare	3	some	NA	pink	NA	legs	40	feps
10	6898	implied_prevalence	bare	4	most	NA	red	NA	scales	40	blins
10	5200	implied_prevalence	bare	5	most	NA	gold	NA	stripes	80	daiths
10	9940	implied_prevalence	bare	6	generic	NA	gold	NA	feathers	95	plovs
10	6542	implied_prevalence	bare	7	generic	NA	red	NA	spots	95	sapers
10	6284	implied_prevalence	bare	8	most	NA	silver	NA	fur	85	morseths
10	5418	implied_prevalence	bare	9	some	NA	purple	NA	shells	30	javs
10	4915	implied_prevalence	bare	10	most	NA	orange	NA	tails	90	zorbs
10	5116	implied_prevalence	bare	11	some	NA	red	NA	feathers	35	noobs
10	4464	implied_prevalence	bare	12	generic	NA	yellow	NA	fur	95	ollers
10	5853	implied_prevalence	bare	13	most	NA	blue	NA	ears	90	cheebas
10	5149	implied_prevalence	bare	14	most	NA	yellow	NA	legs	90	ludinos
10	5649	implied_prevalence	bare	15	generic	NA	orange	NA	shells	95	luzaks
10	4084	implied_prevalence	bare	16	generic	NA	silver	NA	legs	95	ackles
10	9680	implied_prevalence	bare	17	some	NA	green	NA	tails	50	trufts
10	6198	implied_prevalence	bare	18	most	NA	copper	NA	spots	85	glippets
10	6919	implied_prevalence	bare	19	some	NA	orange	NA	ears	40	kazzes
10	6622	implied_prevalence	bare	20	generic	NA	green	NA	teeth	95	zoovs
10	5428	implied_prevalence	bare	21	generic	NA	purple	NA	tails	95	taifels
10	4736	implied_prevalence	bare	22	some	NA	yellow	NA	scales	40	dorbs
10	3664	implied_prevalence	bare	23	generic	NA	pink	NA	ears	95	elleps
10	4338	implied_prevalence	bare	24	some	NA	gold	NA	spots	40	stups
10	4097	implied_prevalence	bare	25	most	NA	green	NA	shells	90	moxes
10	5131	implied_prevalence	bare	26	some	NA	blue	NA	teeth	35	thups
10	5651	implied_prevalence	bare	27	some	NA	copper	NA	fur	35	kweps
10	3516	implied_prevalence	bare	28	most	NA	pink	NA	teeth	90	krivels
10	4464	implied_prevalence	bare	29	generic	NA	blue	NA	scales	95	reesles
11	6910	implied_prevalence	bare	0	most	NA	silver	NA	stripes	75	frams
11	4260	implied_prevalence	bare	1	some	NA	red	NA	spots	25	sapers
11	3900	implied_prevalence	bare	2	some	NA	purple	NA	tails	20	taifels
11	4383	implied_prevalence	bare	3	some	NA	copper	NA	stripes	30	mooks
11	4903	implied_prevalence	bare	4	some	NA	gold	NA	feathers	28	plovs
11	4855	implied_prevalence	bare	5	generic	NA	orange	NA	tails	100	zorbs
11	4536	implied_prevalence	bare	6	generic	NA	green	NA	shells	100	moxes
11	4873	implied_prevalence	bare	7	some	NA	pink	NA	ears	24	elleps
11	4835	implied_prevalence	bare	8	some	NA	blue	NA	scales	20	reesles
11	4337	implied_prevalence	bare	9	most	NA	orange	NA	ears	81	kazzes
11	4086	implied_prevalence	bare	10	most	NA	purple	NA	shells	83	javs
11	5493	implied_prevalence	bare	11	most	NA	red	NA	feathers	85	noobs
11	3160	implied_prevalence	bare	12	generic	NA	purple	NA	feathers	100	lorches
11	5657	implied_prevalence	bare	13	some	NA	silver	NA	legs	10	ackles
11	3043	implied_prevalence	bare	14	generic	NA	gold	NA	stripes	100	daiths
11	4104	implied_prevalence	bare	15	most	NA	pink	NA	legs	88	feps
11	6249	implied_prevalence	bare	16	generic	NA	blue	NA	ears	100	cheebas
11	3233	implied_prevalence	bare	17	generic	NA	pink	NA	teeth	100	krivels
11	4524	implied_prevalence	bare	18	some	NA	orange	NA	shells	23	luzaks
11	7768	implied_prevalence	bare	19	most	NA	gold	NA	spots	80	stups
11	6172	implied_prevalence	bare	20	some	NA	green	NA	teeth	23	zoovs
11	3893	implied_prevalence	bare	21	most	NA	yellow	NA	scales	88	dorbs
11	3266	implied_prevalence	bare	22	generic	NA	silver	NA	fur	100	morseths
11	3104	implied_prevalence	bare	23	generic	NA	red	NA	scales	100	blins
11	3223	implied_prevalence	bare	24	most	NA	blue	NA	teeth	88	thups
11	3090	implied_prevalence	bare	25	most	NA	copper	NA	fur	88	kweps
11	4614	implied_prevalence	bare	26	generic	NA	copper	NA	spots	100	glippets
11	2869	implied_prevalence	bare	27	generic	NA	yellow	NA	legs	100	ludinos
11	3027	implied_prevalence	bare	28	some	NA	yellow	NA	fur	22	ollers
11	3230	implied_prevalence	bare	29	most	NA	green	NA	tails	88	trufts
12	19815	implied_prevalence	bare	0	most	NA	red	NA	feathers	90	noobs
12	8588	implied_prevalence	bare	1	generic	NA	green	NA	teeth	100	zoovs
12	9014	implied_prevalence	bare	2	most	NA	yellow	NA	scales	95	dorbs
12	8184	implied_prevalence	bare	3	most	NA	copper	NA	fur	95	kweps
12	9383	implied_prevalence	bare	4	some	NA	silver	NA	fur	50	morseths
12	6725	implied_prevalence	bare	5	generic	NA	silver	NA	legs	100	ackles
12	6634	implied_prevalence	bare	6	generic	NA	purple	NA	tails	100	taifels
12	8010	implied_prevalence	bare	7	some	NA	green	NA	shells	50	moxes
12	6762	implied_prevalence	bare	8	most	NA	gold	NA	spots	95	stups
12	17303	implied_prevalence	bare	9	most	NA	green	NA	tails	95	trufts
12	22789	implied_prevalence	bare	10	most	NA	pink	NA	legs	95	feps
12	4699	implied_prevalence	bare	11	most	NA	purple	NA	shells	95	javs
12	4836	implied_prevalence	bare	12	some	NA	yellow	NA	legs	40	ludinos
12	5913	implied_prevalence	bare	13	generic	NA	yellow	NA	fur	100	ollers
12	63755	implied_prevalence	bare	14	most	NA	blue	NA	teeth	95	thups
12	14773	implied_prevalence	bare	15	some	NA	blue	NA	ears	45	cheebas
12	6197	implied_prevalence	bare	16	most	NA	silver	NA	stripes	95	frams
12	5675	implied_prevalence	bare	17	some	NA	pink	NA	teeth	50	krivels
12	6175	implied_prevalence	bare	18	generic	NA	pink	NA	ears	100	elleps
12	6094	implied_prevalence	bare	19	generic	NA	gold	NA	feathers	100	plovs
12	6048	implied_prevalence	bare	20	generic	NA	red	NA	spots	100	sapers
12	4591	implied_prevalence	bare	21	generic	NA	orange	NA	shells	100	luzaks
12	9864	implied_prevalence	bare	22	some	NA	purple	NA	feathers	45	lorches
12	4518	implied_prevalence	bare	23	some	NA	gold	NA	stripes	45	daiths
12	4211	implied_prevalence	bare	24	most	NA	orange	NA	ears	95	kazzes
12	27457	implied_prevalence	bare	25	some	NA	orange	NA	tails	45	zorbs
12	4638	implied_prevalence	bare	26	some	NA	red	NA	scales	45	blins
12	3178	implied_prevalence	bare	27	some	NA	copper	NA	spots	45	glippets
12	3948	implied_prevalence	bare	28	generic	NA	blue	NA	scales	100	reesles
12	3666	implied_prevalence	bare	29	generic	NA	copper	NA	stripes	100	mooks
13	7598	truth_conditions	bare	NA	most	0	purple	90	tails	True	taifels
13	7231	truth_conditions	bare	NA	most	1	blue	30	scales	False	reesles
13	6145	truth_conditions	bare	NA	most	2	gold	70	feathers	True	plovs
13	6648	truth_conditions	bare	NA	some	3	yellow	50	legs	True	ludinos
13	5499	truth_conditions	bare	NA	generic	4	green	90	tails	True	trufts
13	4028	truth_conditions	bare	NA	most	5	yellow	70	fur	True	ollers
13	14007	truth_conditions	bare	NA	generic	6	silver	90	stripes	False	frams
13	7102	truth_conditions	bare	NA	some	7	orange	90	tails	False	zorbs
13	6600	truth_conditions	bare	NA	generic	8	yellow	50	scales	False	dorbs
13	11278	truth_conditions	bare	NA	generic	9	gold	10	spots	False	stups
13	5179	truth_conditions	bare	NA	generic	10	copper	10	fur	False	kweps
13	7114	truth_conditions	bare	NA	some	11	red	70	scales	True	blins
13	6784	truth_conditions	bare	NA	generic	12	orange	70	ears	False	kazzes
13	7605	truth_conditions	bare	NA	most	13	green	50	teeth	True	zoovs
13	3955	truth_conditions	bare	NA	most	14	orange	10	shells	False	luzaks
13	4310	truth_conditions	bare	NA	most	15	red	70	spots	True	sapers
13	5056	truth_conditions	bare	NA	most	16	copper	30	stripes	False	mooks
13	5487	truth_conditions	bare	NA	some	17	green	90	shells	False	moxes
13	4617	truth_conditions	bare	NA	some	18	pink	90	teeth	False	krivels
13	4213	truth_conditions	bare	NA	generic	19	red	10	feathers	False	noobs
13	5816	truth_conditions	bare	NA	some	20	purple	30	feathers	True	lorches
13	4641	truth_conditions	bare	NA	generic	21	pink	30	legs	False	feps
13	4251	truth_conditions	bare	NA	some	22	blue	50	ears	True	cheebas
13	4136	truth_conditions	bare	NA	most	23	silver	50	legs	False	ackles
13	6699	truth_conditions	bare	NA	generic	24	blue	90	teeth	False	thups
13	5275	truth_conditions	bare	NA	some	25	gold	30	stripes	True	daiths
13	4995	truth_conditions	bare	NA	some	26	copper	70	spots	True	glippets
13	8474	truth_conditions	bare	NA	most	27	pink	10	ears	False	elleps
13	5387	truth_conditions	bare	NA	generic	28	purple	50	shells	False	javs
13	10029	truth_conditions	bare	NA	some	29	silver	10	fur	True	morseths
14	13708	truth_conditions	bare	NA	generic	0	gold	30	stripes	True	daiths
14	6320	truth_conditions	bare	NA	generic	1	orange	10	tails	True	zorbs
14	7087	truth_conditions	bare	NA	some	2	gold	90	spots	True	stups
14	5769	truth_conditions	bare	NA	some	3	copper	70	fur	True	kweps
14	7478	truth_conditions	bare	NA	generic	4	pink	70	teeth	False	krivels
14	6189	truth_conditions	bare	NA	some	5	silver	50	stripes	True	frams
14	5471	truth_conditions	bare	NA	some	6	orange	10	ears	True	kazzes
14	14338	truth_conditions	bare	NA	most	7	blue	10	scales	False	reesles
14	4875	truth_conditions	bare	NA	most	8	green	90	teeth	True	zoovs
14	5943	truth_conditions	bare	NA	most	9	yellow	90	fur	True	ollers
14	3294	truth_conditions	bare	NA	some	10	yellow	50	scales	True	dorbs
14	2161	truth_conditions	bare	NA	most	11	orange	10	shells	False	luzaks
14	4241	truth_conditions	bare	NA	generic	12	red	90	scales	True	blins
14	4093	truth_conditions	bare	NA	generic	13	copper	30	spots	False	glippets
14	4891	truth_conditions	bare	NA	most	14	copper	70	stripes	True	mooks
14	2030	truth_conditions	bare	NA	some	15	blue	50	teeth	True	thups
14	5140	truth_conditions	bare	NA	most	16	pink	70	ears	True	elleps
14	3471	truth_conditions	bare	NA	most	17	silver	10	legs	False	ackles
14	2471	truth_conditions	bare	NA	some	18	pink	70	legs	True	feps
14	2994	truth_conditions	bare	NA	some	19	purple	10	shells	True	javs
14	4547	truth_conditions	bare	NA	generic	20	yellow	30	legs	False	ludinos
14	3228	truth_conditions	bare	NA	generic	21	purple	10	feathers	False	lorches
14	5739	truth_conditions	bare	NA	generic	22	silver	90	fur	False	morseths
14	4625	truth_conditions	bare	NA	most	23	purple	30	tails	False	taifels
14	4075	truth_conditions	bare	NA	some	24	green	90	tails	True	trufts
14	16510	truth_conditions	bare	NA	some	25	red	50	feathers	True	noobs
14	2540	truth_conditions	bare	NA	generic	26	green	90	shells	True	moxes
14	4218	truth_conditions	bare	NA	generic	27	blue	50	ears	False	cheebas
14	4398	truth_conditions	bare	NA	most	28	gold	90	feathers	True	plovs
14	2541	truth_conditions	bare	NA	most	29	red	90	spots	True	sapers
15	8368	truth_conditions	bare	NA	generic	0	blue	30	ears	False	cheebas
15	4537	truth_conditions	bare	NA	generic	1	red	10	scales	False	blins
15	4250	truth_conditions	bare	NA	some	2	pink	10	ears	True	elleps
15	4017	truth_conditions	bare	NA	most	3	orange	30	ears	False	kazzes
15	5614	truth_conditions	bare	NA	generic	4	silver	90	fur	True	morseths
15	4615	truth_conditions	bare	NA	some	5	orange	30	shells	True	luzaks
15	3452	truth_conditions	bare	NA	some	6	green	50	teeth	True	zoovs
15	5697	truth_conditions	bare	NA	most	7	red	50	feathers	True	noobs
15	3350	truth_conditions	bare	NA	most	8	purple	90	shells	True	javs
15	3086	truth_conditions	bare	NA	most	9	green	10	tails	False	trufts
15	4016	truth_conditions	bare	NA	some	10	gold	90	feathers	True	plovs
15	4684	truth_conditions	bare	NA	generic	11	purple	10	feathers	False	lorches
15	5197	truth_conditions	bare	NA	generic	12	green	50	shells	True	moxes
15	5484	truth_conditions	bare	NA	most	13	pink	30	legs	False	feps
15	3717	truth_conditions	bare	NA	most	14	copper	70	fur	True	kweps
15	3451	truth_conditions	bare	NA	some	15	copper	30	stripes	True	mooks
15	2749	truth_conditions	bare	NA	some	16	blue	50	scales	True	reesles
15	2883	truth_conditions	bare	NA	most	17	yellow	50	scales	True	dorbs
15	4097	truth_conditions	bare	NA	generic	18	gold	70	stripes	True	daiths
15	2537	truth_conditions	bare	NA	most	19	gold	10	spots	False	stups
15	2914	truth_conditions	bare	NA	most	20	silver	70	stripes	True	frams
15	3385	truth_conditions	bare	NA	some	21	red	10	spots	True	sapers
15	4829	truth_conditions	bare	NA	some	22	purple	10	tails	True	taifels
15	2885	truth_conditions	bare	NA	most	23	blue	30	teeth	False	thups
15	3054	truth_conditions	bare	NA	generic	24	orange	90	tails	True	zorbs
15	6051	truth_conditions	bare	NA	some	25	yellow	30	fur	True	ollers
15	2898	truth_conditions	bare	NA	some	26	silver	50	legs	True	ackles
15	2754	truth_conditions	bare	NA	generic	27	yellow	70	legs	True	ludinos
15	3244	truth_conditions	bare	NA	generic	28	pink	70	teeth	True	krivels
15	3964	truth_conditions	bare	NA	generic	29	copper	30	spots	False	glippets
16	8119	implied_prevalence	bare	0	generic	NA	red	NA	scales	100	blins
16	5702	implied_prevalence	bare	1	some	NA	pink	NA	legs	40	feps
16	5279	implied_prevalence	bare	2	some	NA	orange	NA	ears	40	kazzes
16	4896	implied_prevalence	bare	3	most	NA	blue	NA	scales	90	reesles
16	4120	implied_prevalence	bare	4	most	NA	orange	NA	shells	90	luzaks
16	4151	implied_prevalence	bare	5	generic	NA	pink	NA	teeth	100	krivels
16	6753	implied_prevalence	bare	6	most	NA	purple	NA	tails	90	taifels
16	5030	implied_prevalence	bare	7	some	NA	copper	NA	fur	40	kweps
16	5164	implied_prevalence	bare	8	generic	NA	yellow	NA	legs	100	ludinos
16	4779	implied_prevalence	bare	9	most	NA	green	NA	teeth	90	zoovs
16	6377	implied_prevalence	bare	10	generic	NA	purple	NA	feathers	100	lorches
16	4319	implied_prevalence	bare	11	generic	NA	orange	NA	tails	100	zorbs
16	4984	implied_prevalence	bare	12	some	NA	gold	NA	spots	40	stups
16	3984	implied_prevalence	bare	13	some	NA	green	NA	tails	40	trufts
16	5150	implied_prevalence	bare	14	some	NA	purple	NA	shells	30	javs
16	4704	implied_prevalence	bare	15	most	NA	yellow	NA	fur	90	ollers
16	3888	implied_prevalence	bare	16	most	NA	silver	NA	legs	90	ackles
16	7111	implied_prevalence	bare	17	some	NA	red	NA	feathers	40	noobs
16	4831	implied_prevalence	bare	18	generic	NA	copper	NA	spots	100	glippets
16	4776	implied_prevalence	bare	19	some	NA	silver	NA	stripes	30	frams
16	6584	implied_prevalence	bare	20	some	NA	yellow	NA	scales	40	dorbs
16	3984	implied_prevalence	bare	21	generic	NA	gold	NA	stripes	100	daiths
16	3566	implied_prevalence	bare	22	generic	NA	silver	NA	fur	100	morseths
16	4697	implied_prevalence	bare	23	generic	NA	blue	NA	ears	100	cheebas
16	3880	implied_prevalence	bare	24	generic	NA	green	NA	shells	100	moxes
16	6367	implied_prevalence	bare	25	most	NA	pink	NA	ears	90	elleps
16	5769	implied_prevalence	bare	26	some	NA	blue	NA	teeth	30	thups
16	4104	implied_prevalence	bare	27	most	NA	red	NA	spots	90	sapers
16	4129	implied_prevalence	bare	28	most	NA	copper	NA	stripes	90	mooks
16	4703	implied_prevalence	bare	29	most	NA	gold	NA	feathers	90	plovs
17	12337	implied_prevalence	bare	0	most	NA	green	NA	tails	30	trufts
17	5585	implied_prevalence	bare	1	generic	NA	green	NA	teeth	15	zoovs
17	3396	implied_prevalence	bare	2	some	NA	gold	NA	stripes	25	daiths
17	3522	implied_prevalence	bare	3	some	NA	copper	NA	spots	50	glippets
17	3479	implied_prevalence	bare	4	generic	NA	silver	NA	legs	25	ackles
17	5295	implied_prevalence	bare	5	some	NA	yellow	NA	legs	33	ludinos
17	3877	implied_prevalence	bare	6	most	NA	gold	NA	spots	35	stups
17	3075	implied_prevalence	bare	7	generic	NA	orange	NA	shells	50	luzaks
17	2971	implied_prevalence	bare	8	most	NA	orange	NA	ears	55	kazzes
17	3317	implied_prevalence	bare	9	some	NA	orange	NA	tails	60	zorbs
17	4004	implied_prevalence	bare	10	most	NA	blue	NA	teeth	25	thups
17	4058	implied_prevalence	bare	11	most	NA	yellow	NA	scales	30	dorbs
17	3899	implied_prevalence	bare	12	most	NA	copper	NA	fur	55	kweps
17	4481	implied_prevalence	bare	13	some	NA	red	NA	scales	60	blins
17	4065	implied_prevalence	bare	14	generic	NA	purple	NA	tails	35	taifels
17	3204	implied_prevalence	bare	15	some	NA	purple	NA	feathers	33	lorches
17	2619	implied_prevalence	bare	16	generic	NA	red	NA	spots	20	sapers
17	3050	implied_prevalence	bare	17	generic	NA	pink	NA	ears	25	elleps
17	5148	implied_prevalence	bare	18	generic	NA	yellow	NA	fur	25	ollers
17	45150	implied_prevalence	bare	19	most	NA	pink	NA	legs	33	feps
17	3859	implied_prevalence	bare	20	generic	NA	gold	NA	feathers	55	plovs
17	3493	implied_prevalence	bare	21	generic	NA	copper	NA	stripes	60	mooks
17	3403	implied_prevalence	bare	22	most	NA	red	NA	feathers	50	noobs
17	3741	implied_prevalence	bare	23	most	NA	purple	NA	shells	35	javs
17	2984	implied_prevalence	bare	24	some	NA	silver	NA	fur	35	morseths
17	2509	implied_prevalence	bare	25	generic	NA	blue	NA	scales	45	reesles
17	2597	implied_prevalence	bare	26	most	NA	silver	NA	stripes	25	frams
17	4896	implied_prevalence	bare	27	some	NA	blue	NA	ears	30	cheebas
17	5248	implied_prevalence	bare	28	some	NA	green	NA	shells	30	moxes
17	2645	implied_prevalence	bare	29	some	NA	pink	NA	teeth	33	krivels
18	14575	implied_prevalence	bare	0	generic	NA	green	NA	teeth	100	zoovs
18	7331	implied_prevalence	bare	1	most	NA	red	NA	scales	95	blins
18	4753	implied_prevalence	bare	2	generic	NA	orange	NA	shells	100	luzaks
18	4024	implied_prevalence	bare	3	generic	NA	red	NA	spots	100	sapers
18	5215	implied_prevalence	bare	4	some	NA	pink	NA	legs	20	feps
18	3474	implied_prevalence	bare	5	generic	NA	pink	NA	ears	100	elleps
18	5356	implied_prevalence	bare	6	some	NA	red	NA	feathers	30	noobs
18	10302	implied_prevalence	bare	7	some	NA	yellow	NA	scales	25	dorbs
18	17615	implied_prevalence	bare	8	most	NA	copper	NA	spots	90	glippets
18	5804	implied_prevalence	bare	9	some	NA	green	NA	tails	20	trufts
18	3256	implied_prevalence	bare	10	generic	NA	purple	NA	tails	100	taifels
18	28125	implied_prevalence	bare	11	most	NA	gold	NA	stripes	85	daiths
18	4747	implied_prevalence	bare	12	some	NA	copper	NA	fur	20	kweps
18	3080	implied_prevalence	bare	13	generic	NA	gold	NA	feathers	100	plovs
18	4622	implied_prevalence	bare	14	most	NA	pink	NA	teeth	95	krivels
18	3434	implied_prevalence	bare	15	generic	NA	silver	NA	legs	100	ackles
18	3374	implied_prevalence	bare	16	generic	NA	copper	NA	stripes	100	mooks
18	17743	implied_prevalence	bare	17	some	NA	blue	NA	teeth	25	thups
18	3010	implied_prevalence	bare	18	some	NA	gold	NA	spots	25	stups
18	6306	implied_prevalence	bare	19	most	NA	purple	NA	feathers	90	lorches
18	4587	implied_prevalence	bare	20	most	NA	silver	NA	fur	95	morseths
18	3483	implied_prevalence	bare	21	most	NA	yellow	NA	legs	95	ludinos
18	3342	implied_prevalence	bare	22	generic	NA	yellow	NA	fur	100	ollers
18	19083	implied_prevalence	bare	23	generic	NA	blue	NA	scales	100	reesles
18	11638	implied_prevalence	bare	24	most	NA	blue	NA	ears	95	cheebas
18	5134	implied_prevalence	bare	25	some	NA	purple	NA	shells	20	javs
18	3620	implied_prevalence	bare	26	most	NA	green	NA	shells	95	moxes
18	4194	implied_prevalence	bare	27	some	NA	orange	NA	ears	30	kazzes
18	2603	implied_prevalence	bare	28	some	NA	silver	NA	stripes	30	frams
18	2899	implied_prevalence	bare	29	most	NA	orange	NA	tails	90	zorbs
19	10922	implied_prevalence	bare	0	generic	NA	pink	NA	legs	99	feps
19	6612	implied_prevalence	bare	1	some	NA	silver	NA	legs	20	ackles
19	9055	implied_prevalence	bare	2	some	NA	gold	NA	feathers	20	plovs
19	4623	implied_prevalence	bare	3	generic	NA	purple	NA	shells	99	javs
19	6571	implied_prevalence	bare	4	most	NA	gold	NA	stripes	90	daiths
19	4766	implied_prevalence	bare	5	most	NA	pink	NA	teeth	90	krivels
19	4102	implied_prevalence	bare	6	generic	NA	green	NA	tails	99	trufts
19	6731	implied_prevalence	bare	7	most	NA	copper	NA	spots	85	glippets
19	6376	implied_prevalence	bare	8	some	NA	yellow	NA	fur	30	ollers
19	3686	implied_prevalence	bare	9	generic	NA	copper	NA	fur	99	kweps
19	6351	implied_prevalence	bare	10	some	NA	red	NA	spots	25	sapers
19	3605	implied_prevalence	bare	11	some	NA	purple	NA	tails	25	taifels
19	5758	implied_prevalence	bare	12	generic	NA	orange	NA	ears	99	kazzes
19	10247	implied_prevalence	bare	13	some	NA	blue	NA	scales	25	reesles
19	3688	implied_prevalence	bare	14	some	NA	pink	NA	ears	25	elleps
19	3809	implied_prevalence	bare	15	generic	NA	gold	NA	spots	99	stups
19	4744	implied_prevalence	bare	16	most	NA	purple	NA	feathers	90	lorches
19	4721	implied_prevalence	bare	17	most	NA	red	NA	scales	90	blins
19	4154	implied_prevalence	bare	18	most	NA	silver	NA	fur	90	morseths
19	4179	implied_prevalence	bare	19	most	NA	blue	NA	ears	90	cheebas
19	6724	implied_prevalence	bare	20	some	NA	copper	NA	stripes	25	mooks
19	7707	implied_prevalence	bare	21	most	NA	yellow	NA	legs	85	ludinos
19	5776	implied_prevalence	bare	22	most	NA	orange	NA	tails	90	zorbs
19	3541	implied_prevalence	bare	23	generic	NA	yellow	NA	scales	99	dorbs
19	6147	implied_prevalence	bare	24	some	NA	orange	NA	shells	25	luzaks
19	5199	implied_prevalence	bare	25	some	NA	green	NA	teeth	20	zoovs
19	3947	implied_prevalence	bare	26	generic	NA	blue	NA	teeth	99	thups
19	6737	implied_prevalence	bare	27	generic	NA	red	NA	feathers	99	noobs
19	7880	implied_prevalence	bare	28	most	NA	green	NA	shells	85	moxes
19	3664	implied_prevalence	bare	29	generic	NA	silver	NA	stripes	99	frams
20	5856	truth_conditions	bare	NA	most	0	copper	30	stripes	False	mooks
20	6220	truth_conditions	bare	NA	generic	1	gold	70	spots	True	stups
20	4370	truth_conditions	bare	NA	generic	2	purple	70	shells	True	javs
20	5002	truth_conditions	bare	NA	some	3	purple	70	feathers	True	lorches
20	4367	truth_conditions	bare	NA	generic	4	blue	10	teeth	False	thups
20	5639	truth_conditions	bare	NA	most	5	gold	50	feathers	False	plovs
20	5568	truth_conditions	bare	NA	generic	6	orange	50	ears	False	kazzes
20	3703	truth_conditions	bare	NA	some	7	pink	70	teeth	True	krivels
20	4259	truth_conditions	bare	NA	most	8	yellow	10	fur	False	ollers
20	3008	truth_conditions	bare	NA	generic	9	green	90	tails	True	trufts
20	3453	truth_conditions	bare	NA	some	10	red	30	scales	True	blins
20	6275	truth_conditions	bare	NA	some	11	orange	50	tails	True	zorbs
20	3396	truth_conditions	bare	NA	most	12	green	70	teeth	True	zoovs
20	3924	truth_conditions	bare	NA	generic	13	yellow	50	scales	False	dorbs
20	6245	truth_conditions	bare	NA	most	14	red	30	spots	False	sapers
20	4868	truth_conditions	bare	NA	some	15	silver	10	fur	True	morseths
20	4367	truth_conditions	bare	NA	some	16	green	50	shells	True	moxes
20	3840	truth_conditions	bare	NA	some	17	blue	10	ears	True	cheebas
20	6610	truth_conditions	bare	NA	some	18	yellow	30	legs	True	ludinos
20	4540	truth_conditions	bare	NA	most	19	purple	50	tails	False	taifels
20	8523	truth_conditions	bare	NA	some	20	gold	90	stripes	True	daiths
20	3238	truth_conditions	bare	NA	generic	21	pink	30	legs	False	feps
20	3322	truth_conditions	bare	NA	some	22	copper	90	spots	True	glippets
20	3255	truth_conditions	bare	NA	most	23	blue	10	scales	False	reesles
20	3118	truth_conditions	bare	NA	generic	24	silver	10	stripes	False	frams
20	3018	truth_conditions	bare	NA	most	25	pink	70	ears	True	elleps
20	3159	truth_conditions	bare	NA	most	26	silver	90	legs	True	ackles
20	3745	truth_conditions	bare	NA	generic	27	red	30	feathers	False	noobs
20	3418	truth_conditions	bare	NA	generic	28	copper	90	fur	True	kweps
20	3039	truth_conditions	bare	NA	most	29	orange	90	shells	True	luzaks
21	10134	implied_prevalence	bare	0	some	NA	gold	NA	spots	30	stups
21	7991	implied_prevalence	bare	1	most	NA	blue	NA	scales	90	reesles
21	5687	implied_prevalence	bare	2	most	NA	purple	NA	tails	90	taifels
21	7800	implied_prevalence	bare	3	generic	NA	red	NA	scales	100	blins
21	9360	implied_prevalence	bare	4	most	NA	yellow	NA	fur	80	ollers
21	9383	implied_prevalence	bare	5	some	NA	pink	NA	legs	25	feps
21	5336	implied_prevalence	bare	6	some	NA	silver	NA	stripes	25	frams
21	6049	implied_prevalence	bare	7	most	NA	red	NA	spots	85	sapers
21	4076	implied_prevalence	bare	8	generic	NA	blue	NA	ears	100	cheebas
21	5648	implied_prevalence	bare	9	generic	NA	orange	NA	tails	100	zorbs
21	6254	implied_prevalence	bare	10	generic	NA	yellow	NA	legs	100	ludinos
21	6551	implied_prevalence	bare	11	some	NA	purple	NA	shells	30	javs
21	5720	implied_prevalence	bare	12	some	NA	orange	NA	ears	30	kazzes
21	5528	implied_prevalence	bare	13	some	NA	yellow	NA	scales	30	dorbs
21	5472	implied_prevalence	bare	14	most	NA	copper	NA	stripes	80	mooks
21	3728	implied_prevalence	bare	15	generic	NA	purple	NA	feathers	100	lorches
21	4632	implied_prevalence	bare	16	some	NA	blue	NA	teeth	35	thups
21	3977	implied_prevalence	bare	17	most	NA	pink	NA	ears	85	elleps
21	4324	implied_prevalence	bare	18	most	NA	silver	NA	legs	80	ackles
21	4895	implied_prevalence	bare	19	generic	NA	silver	NA	fur	100	morseths
21	4672	implied_prevalence	bare	20	some	NA	green	NA	tails	30	trufts
21	3432	implied_prevalence	bare	21	some	NA	copper	NA	fur	30	kweps
21	15719	implied_prevalence	bare	22	generic	NA	copper	NA	spots	100	glippets
21	8768	implied_prevalence	bare	23	some	NA	red	NA	feathers	30	noobs
21	10008	implied_prevalence	bare	24	most	NA	gold	NA	feathers	80	plovs
21	4352	implied_prevalence	bare	25	generic	NA	gold	NA	stripes	100	daiths
21	5499	implied_prevalence	bare	26	most	NA	green	NA	teeth	80	zoovs
21	5155	implied_prevalence	bare	27	generic	NA	pink	NA	teeth	100	krivels
21	3487	implied_prevalence	bare	28	generic	NA	green	NA	shells	100	moxes
21	4584	implied_prevalence	bare	29	most	NA	orange	NA	shells	75	luzaks
22	19657	implied_prevalence	bare	0	some	NA	silver	NA	legs	33	ackles
22	8551	implied_prevalence	bare	1	most	NA	green	NA	tails	75	trufts
22	8640	implied_prevalence	bare	2	most	NA	silver	NA	stripes	75	frams
22	6160	implied_prevalence	bare	3	some	NA	red	NA	spots	33	sapers
22	4362	implied_prevalence	bare	4	some	NA	purple	NA	tails	33	taifels
22	7670	implied_prevalence	bare	5	most	NA	purple	NA	shells	75	javs
22	8801	implied_prevalence	bare	6	generic	NA	pink	NA	teeth	100	krivels
22	5072	implied_prevalence	bare	7	some	NA	gold	NA	feathers	33	plovs
22	3856	implied_prevalence	bare	8	some	NA	copper	NA	stripes	33	mooks
22	6113	implied_prevalence	bare	9	generic	NA	orange	NA	tails	100	zorbs
22	4153	implied_prevalence	bare	10	some	NA	orange	NA	shells	33	luzaks
22	4024	implied_prevalence	bare	11	most	NA	pink	NA	legs	75	feps
22	5895	implied_prevalence	bare	12	some	NA	blue	NA	scales	33	reesles
22	2863	implied_prevalence	bare	13	some	NA	pink	NA	ears	33	elleps
22	4489	implied_prevalence	bare	14	most	NA	gold	NA	spots	75	stups
22	4622	implied_prevalence	bare	15	generic	NA	copper	NA	spots	100	glippets
22	3559	implied_prevalence	bare	16	generic	NA	red	NA	scales	100	blins
22	7082	implied_prevalence	bare	17	generic	NA	green	NA	shells	100	moxes
22	4493	implied_prevalence	bare	18	some	NA	yellow	NA	fur	33	ollers
22	7643	implied_prevalence	bare	19	most	NA	red	NA	feathers	75	noobs
22	6577	implied_prevalence	bare	20	most	NA	copper	NA	fur	75	kweps
22	4134	implied_prevalence	bare	21	some	NA	green	NA	teeth	33	zoovs
22	8671	implied_prevalence	bare	22	most	NA	yellow	NA	scales	75	dorbs
22	4418	implied_prevalence	bare	23	generic	NA	blue	NA	ears	100	cheebas
22	3535	implied_prevalence	bare	24	generic	NA	gold	NA	stripes	100	daiths
22	5311	implied_prevalence	bare	25	most	NA	orange	NA	ears	75	kazzes
22	4794	implied_prevalence	bare	26	generic	NA	purple	NA	feathers	100	lorches
22	3542	implied_prevalence	bare	27	generic	NA	yellow	NA	legs	100	ludinos
22	3512	implied_prevalence	bare	28	most	NA	blue	NA	teeth	75	thups
22	3210	implied_prevalence	bare	29	generic	NA	silver	NA	fur	100	morseths
23	4038	truth_conditions	bare	NA	some	0	blue	30	ears	True	cheebas
23	4730	truth_conditions	bare	NA	most	1	red	10	feathers	False	noobs
23	3364	truth_conditions	bare	NA	some	2	pink	90	teeth	True	krivels
23	2868	truth_conditions	bare	NA	generic	3	pink	90	ears	True	elleps
23	2686	truth_conditions	bare	NA	most	4	blue	10	teeth	False	thups
23	5222	truth_conditions	bare	NA	generic	5	gold	70	feathers	True	plovs
23	6657	truth_conditions	bare	NA	some	6	purple	10	feathers	True	lorches
23	3260	truth_conditions	bare	NA	generic	7	purple	90	tails	True	taifels
23	2342	truth_conditions	bare	NA	most	8	silver	30	stripes	False	frams
23	2215	truth_conditions	bare	NA	generic	9	yellow	10	fur	False	ollers
23	1928	truth_conditions	bare	NA	most	10	yellow	90	scales	True	dorbs
23	2104	truth_conditions	bare	NA	some	11	red	70	scales	True	blins
23	2853	truth_conditions	bare	NA	most	12	orange	30	ears	False	kazzes
23	2214	truth_conditions	bare	NA	generic	13	blue	30	scales	False	reesles
23	2070	truth_conditions	bare	NA	some	14	green	30	shells	True	moxes
23	2101	truth_conditions	bare	NA	some	15	gold	50	stripes	True	daiths
23	1882	truth_conditions	bare	NA	generic	16	orange	50	shells	True	luzaks
23	1805	truth_conditions	bare	NA	most	17	green	90	tails	True	trufts
23	2106	truth_conditions	bare	NA	generic	18	red	70	spots	True	sapers
23	2012	truth_conditions	bare	NA	most	19	purple	50	shells	False	javs
23	1977	truth_conditions	bare	NA	most	20	gold	70	spots	True	stups
23	1646	truth_conditions	bare	NA	most	21	pink	70	legs	True	feps
23	1778	truth_conditions	bare	NA	some	22	copper	70	spots	True	glippets
23	3357	truth_conditions	bare	NA	some	23	yellow	50	legs	False	ludinos
23	1643	truth_conditions	bare	NA	generic	24	copper	10	stripes	False	mooks
23	5051	truth_conditions	bare	NA	generic	25	green	30	teeth	False	zoovs
23	1806	truth_conditions	bare	NA	some	26	silver	10	fur	False	morseths
23	2356	truth_conditions	bare	NA	some	27	orange	90	tails	True	zorbs
23	2606	truth_conditions	bare	NA	generic	28	silver	50	legs	False	ackles
23	1474	truth_conditions	bare	NA	most	29	copper	50	fur	True	kweps
24	6631	implied_prevalence	bare	0	most	NA	red	NA	scales	75	blins
24	6516	implied_prevalence	bare	1	some	NA	purple	NA	shells	20	javs
24	5077	implied_prevalence	bare	2	most	NA	silver	NA	fur	75	morseths
24	4483	implied_prevalence	bare	3	generic	NA	green	NA	teeth	100	zoovs
24	4110	implied_prevalence	bare	4	most	NA	gold	NA	stripes	75	daiths
24	3377	implied_prevalence	bare	5	most	NA	green	NA	shells	75	moxes
24	4524	implied_prevalence	bare	6	some	NA	blue	NA	teeth	15	thups
24	4076	implied_prevalence	bare	7	some	NA	pink	NA	legs	20	feps
24	3086	implied_prevalence	bare	8	generic	NA	purple	NA	tails	100	taifels
24	2764	implied_prevalence	bare	9	most	NA	orange	NA	tails	75	zorbs
24	3824	implied_prevalence	bare	10	some	NA	gold	NA	spots	15	stups
24	2959	implied_prevalence	bare	11	some	NA	copper	NA	fur	20	kweps
24	2897	implied_prevalence	bare	12	most	NA	copper	NA	spots	75	glippets
24	2986	implied_prevalence	bare	13	generic	NA	pink	NA	ears	100	elleps
24	4858	implied_prevalence	bare	14	most	NA	blue	NA	ears	75	cheebas
24	2869	implied_prevalence	bare	15	generic	NA	yellow	NA	fur	100	ollers
24	2273	implied_prevalence	bare	16	most	NA	purple	NA	feathers	75	lorches
24	3271	implied_prevalence	bare	17	some	NA	red	NA	feathers	20	noobs
24	2836	implied_prevalence	bare	18	generic	NA	copper	NA	stripes	100	mooks
24	2609	implied_prevalence	bare	19	generic	NA	gold	NA	feathers	100	plovs
24	2984	implied_prevalence	bare	20	generic	NA	silver	NA	legs	100	ackles
24	2476	implied_prevalence	bare	21	some	NA	orange	NA	ears	20	kazzes
24	2659	implied_prevalence	bare	22	generic	NA	blue	NA	scales	100	reesles
24	3617	implied_prevalence	bare	23	generic	NA	orange	NA	shells	100	luzaks
24	3194	implied_prevalence	bare	24	most	NA	pink	NA	teeth	75	krivels
24	2454	implied_prevalence	bare	25	generic	NA	red	NA	spots	100	sapers
24	2514	implied_prevalence	bare	26	most	NA	yellow	NA	legs	75	ludinos
24	2360	implied_prevalence	bare	27	some	NA	green	NA	tails	20	trufts
24	2213	implied_prevalence	bare	28	some	NA	yellow	NA	scales	20	dorbs
24	2468	implied_prevalence	bare	29	some	NA	silver	NA	stripes	20	frams
25	7957	implied_prevalence	bare	0	generic	NA	pink	NA	legs	100	feps
25	6890	implied_prevalence	bare	1	some	NA	blue	NA	scales	30	reesles
25	4844	implied_prevalence	bare	2	generic	NA	purple	NA	shells	100	javs
25	5141	implied_prevalence	bare	3	most	NA	yellow	NA	legs	85	ludinos
25	5236	implied_prevalence	bare	4	some	NA	silver	NA	legs	25	ackles
25	5332	implied_prevalence	bare	5	most	NA	silver	NA	fur	90	morseths
25	5050	implied_prevalence	bare	6	most	NA	gold	NA	stripes	80	daiths
25	3560	implied_prevalence	bare	7	most	NA	orange	NA	tails	85	zorbs
25	3806	implied_prevalence	bare	8	generic	NA	red	NA	feathers	100	noobs
25	6484	implied_prevalence	bare	9	some	NA	copper	NA	stripes	30	mooks
25	5157	implied_prevalence	bare	10	some	NA	yellow	NA	fur	30	ollers
25	3478	implied_prevalence	bare	11	most	NA	copper	NA	spots	85	glippets
25	3451	implied_prevalence	bare	12	some	NA	purple	NA	tails	25	taifels
25	4751	implied_prevalence	bare	13	most	NA	green	NA	shells	90	moxes
25	3344	implied_prevalence	bare	14	generic	NA	silver	NA	stripes	100	frams
25	6623	implied_prevalence	bare	15	most	NA	purple	NA	feathers	85	lorches
25	4235	implied_prevalence	bare	16	some	NA	pink	NA	ears	25	elleps
25	3746	implied_prevalence	bare	17	generic	NA	orange	NA	ears	100	kazzes
25	5125	implied_prevalence	bare	18	generic	NA	blue	NA	teeth	100	thups
25	4052	implied_prevalence	bare	19	some	NA	green	NA	teeth	25	zoovs
25	4667	implied_prevalence	bare	20	some	NA	orange	NA	shells	30	luzaks
25	3534	implied_prevalence	bare	21	generic	NA	green	NA	tails	100	trufts
25	3453	implied_prevalence	bare	22	some	NA	red	NA	spots	30	sapers
25	4485	implied_prevalence	bare	23	most	NA	pink	NA	teeth	85	krivels
25	4395	implied_prevalence	bare	24	generic	NA	yellow	NA	scales	100	dorbs
25	8480	implied_prevalence	bare	25	some	NA	gold	NA	feathers	25	plovs
25	4060	implied_prevalence	bare	26	generic	NA	copper	NA	fur	100	kweps
25	3979	implied_prevalence	bare	27	most	NA	blue	NA	ears	85	cheebas
25	3509	implied_prevalence	bare	28	most	NA	red	NA	scales	90	blins
25	3687	implied_prevalence	bare	29	generic	NA	gold	NA	spots	100	stups
26	5488	implied_prevalence	bare	0	generic	NA	red	NA	spots	100	sapers
26	6754	implied_prevalence	bare	1	most	NA	pink	NA	teeth	65	krivels
26	5936	implied_prevalence	bare	2	most	NA	red	NA	scales	65	blins
26	4201	implied_prevalence	bare	3	some	NA	green	NA	tails	30	trufts
26	5009	implied_prevalence	bare	4	most	NA	orange	NA	tails	65	zorbs
26	4270	implied_prevalence	bare	5	some	NA	gold	NA	spots	30	stups
26	5437	implied_prevalence	bare	6	most	NA	blue	NA	ears	90	cheebas
26	3365	implied_prevalence	bare	7	some	NA	yellow	NA	scales	25	dorbs
26	9815	implied_prevalence	bare	8	most	NA	copper	NA	spots	75	glippets
26	2533	implied_prevalence	bare	9	most	NA	gold	NA	stripes	90	daiths
26	3203	implied_prevalence	bare	10	some	NA	red	NA	feathers	25	noobs
26	3043	implied_prevalence	bare	11	generic	NA	purple	NA	tails	100	taifels
26	3072	implied_prevalence	bare	12	some	NA	pink	NA	legs	20	feps
26	3336	implied_prevalence	bare	13	some	NA	silver	NA	stripes	20	frams
26	3484	implied_prevalence	bare	14	generic	NA	copper	NA	stripes	100	mooks
26	4369	implied_prevalence	bare	15	generic	NA	blue	NA	scales	100	reesles
26	3745	implied_prevalence	bare	16	some	NA	copper	NA	fur	20	kweps
26	4200	implied_prevalence	bare	17	some	NA	blue	NA	teeth	40	thups
26	2987	implied_prevalence	bare	18	most	NA	green	NA	shells	90	moxes
26	2795	implied_prevalence	bare	19	generic	NA	pink	NA	ears	100	elleps
26	4132	implied_prevalence	bare	20	most	NA	silver	NA	fur	80	morseths
26	2871	implied_prevalence	bare	21	some	NA	purple	NA	shells	20	javs
26	3320	implied_prevalence	bare	22	generic	NA	silver	NA	legs	100	ackles
26	2655	implied_prevalence	bare	23	generic	NA	gold	NA	feathers	100	plovs
26	3313	implied_prevalence	bare	24	generic	NA	green	NA	teeth	100	zoovs
26	4972	implied_prevalence	bare	25	most	NA	yellow	NA	legs	85	ludinos
26	2965	implied_prevalence	bare	26	generic	NA	yellow	NA	fur	100	ollers
26	4200	implied_prevalence	bare	27	generic	NA	orange	NA	shells	100	luzaks
26	2888	implied_prevalence	bare	28	most	NA	purple	NA	feathers	80	lorches
26	5837	implied_prevalence	bare	29	some	NA	orange	NA	ears	33	kazzes
27	6871	implied_prevalence	bare	0	generic	NA	yellow	NA	scales	15	dorbs
27	5976	implied_prevalence	bare	1	some	NA	orange	NA	tails	5	zorbs
27	9544	implied_prevalence	bare	2	most	NA	silver	NA	legs	50	ackles
27	6200	implied_prevalence	bare	3	most	NA	pink	NA	ears	50	elleps
27	5055	implied_prevalence	bare	4	generic	NA	pink	NA	legs	100	feps
27	4128	implied_prevalence	bare	5	generic	NA	blue	NA	teeth	100	thups
27	4728	implied_prevalence	bare	6	some	NA	copper	NA	spots	15	glippets
27	3393	implied_prevalence	bare	7	some	NA	red	NA	scales	15	blins
27	25055	implied_prevalence	bare	8	most	NA	copper	NA	stripes	50	mooks
27	5175	implied_prevalence	bare	9	some	NA	pink	NA	teeth	15	krivels
27	16681	implied_prevalence	bare	10	some	NA	yellow	NA	legs	35	ludinos
27	2943	implied_prevalence	bare	11	most	NA	purple	NA	tails	50	taifels
27	9680	implied_prevalence	bare	12	generic	NA	purple	NA	shells	100	javs
27	3071	implied_prevalence	bare	13	some	NA	gold	NA	stripes	15	daiths
27	7080	implied_prevalence	bare	14	most	NA	gold	NA	feathers	75	plovs
27	21056	implied_prevalence	bare	15	some	NA	blue	NA	ears	15	cheebas
27	2576	implied_prevalence	bare	16	generic	NA	silver	NA	stripes	100	frams
27	7328	implied_prevalence	bare	17	generic	NA	red	NA	feathers	100	noobs
27	3831	implied_prevalence	bare	18	most	NA	green	NA	teeth	65	zoovs
27	6457	implied_prevalence	bare	19	most	NA	orange	NA	shells	65	luzaks
27	3847	implied_prevalence	bare	20	some	NA	purple	NA	feathers	45	lorches
27	8464	implied_prevalence	bare	21	some	NA	silver	NA	fur	15	morseths
27	2640	implied_prevalence	bare	22	generic	NA	green	NA	tails	100	trufts
27	2688	implied_prevalence	bare	23	generic	NA	orange	NA	ears	100	kazzes
27	3337	implied_prevalence	bare	24	some	NA	green	NA	shells	35	moxes
27	2734	implied_prevalence	bare	25	generic	NA	gold	NA	spots	100	stups
27	2520	implied_prevalence	bare	26	most	NA	yellow	NA	fur	65	ollers
27	1944	implied_prevalence	bare	27	most	NA	blue	NA	scales	65	reesles
27	1977	implied_prevalence	bare	28	generic	NA	copper	NA	fur	100	kweps
27	2918	implied_prevalence	bare	29	most	NA	red	NA	spots	85	sapers
28	11563	implied_prevalence	bare	0	some	NA	silver	NA	legs	25	ackles
28	3285	implied_prevalence	bare	1	some	NA	red	NA	spots	25	sapers
28	2922	implied_prevalence	bare	2	some	NA	yellow	NA	fur	30	ollers
28	2911	implied_prevalence	bare	3	generic	NA	red	NA	scales	100	blins
28	5688	implied_prevalence	bare	4	most	NA	gold	NA	spots	75	stups
28	2395	implied_prevalence	bare	5	most	NA	red	NA	feathers	75	noobs
28	4411	implied_prevalence	bare	6	generic	NA	blue	NA	ears	100	cheebas
28	2508	implied_prevalence	bare	7	most	NA	copper	NA	fur	75	kweps
28	2068	implied_prevalence	bare	8	some	NA	green	NA	teeth	50	zoovs
28	2574	implied_prevalence	bare	9	generic	NA	yellow	NA	legs	100	ludinos
28	4905	implied_prevalence	bare	10	some	NA	purple	NA	tails	50	taifels
28	2936	implied_prevalence	bare	11	some	NA	gold	NA	feathers	100	plovs
28	224660	implied_prevalence	bare	12	generic	NA	copper	NA	spots	100	glippets
28	3769	implied_prevalence	bare	13	most	NA	silver	NA	stripes	75	frams
28	2294	implied_prevalence	bare	14	some	NA	blue	NA	scales	50	reesles
28	2244	implied_prevalence	bare	15	generic	NA	pink	NA	teeth	100	krivels
28	2291	implied_prevalence	bare	16	generic	NA	gold	NA	stripes	100	daiths
28	1945	implied_prevalence	bare	17	some	NA	orange	NA	shells	50	luzaks
28	2171	implied_prevalence	bare	18	most	NA	blue	NA	teeth	75	thups
28	2224	implied_prevalence	bare	19	generic	NA	silver	NA	fur	100	morseths
28	3495	implied_prevalence	bare	20	some	NA	pink	NA	ears	25	elleps
28	2520	implied_prevalence	bare	21	most	NA	orange	NA	ears	75	kazzes
28	2583	implied_prevalence	bare	22	generic	NA	orange	NA	tails	100	zorbs
28	2173	implied_prevalence	bare	23	most	NA	yellow	NA	scales	75	dorbs
28	2663	implied_prevalence	bare	24	generic	NA	green	NA	shells	100	moxes
28	3333	implied_prevalence	bare	25	most	NA	purple	NA	shells	75	javs
28	2416	implied_prevalence	bare	26	most	NA	pink	NA	legs	75	feps
28	2371	implied_prevalence	bare	27	some	NA	copper	NA	stripes	50	mooks
28	1840	implied_prevalence	bare	28	generic	NA	purple	NA	feathers	100	lorches
28	2697	implied_prevalence	bare	29	most	NA	green	NA	tails	75	trufts
29	26716	truth_conditions	bare	NA	most	0	purple	90	shells	True	javs
29	17610	truth_conditions	bare	NA	some	1	copper	70	spots	True	glippets
29	25296	truth_conditions	bare	NA	most	2	orange	70	ears	True	kazzes
29	19883	truth_conditions	bare	NA	some	3	gold	90	stripes	True	daiths
29	11583	truth_conditions	bare	NA	some	4	pink	50	teeth	True	krivels
29	12310	truth_conditions	bare	NA	some	5	purple	30	feathers	True	lorches
29	11976	truth_conditions	bare	NA	some	6	red	30	scales	True	blins
29	17989	truth_conditions	bare	NA	most	7	pink	30	legs	False	feps
29	13097	truth_conditions	bare	NA	some	8	silver	10	fur	True	morseths
29	19884	truth_conditions	bare	NA	generic	9	green	90	teeth	False	zoovs
29	11982	truth_conditions	bare	NA	some	10	orange	50	tails	True	zorbs
29	16037	truth_conditions	bare	NA	most	11	copper	70	fur	True	kweps
29	26549	truth_conditions	bare	NA	generic	12	gold	70	feathers	True	plovs
29	14533	truth_conditions	bare	NA	generic	13	silver	30	legs	True	ackles
29	8850	truth_conditions	bare	NA	generic	14	copper	10	stripes	True	mooks
29	7560	truth_conditions	bare	NA	most	15	green	10	tails	False	trufts
29	10952	truth_conditions	bare	NA	most	16	gold	30	spots	False	stups
29	10060	truth_conditions	bare	NA	most	17	yellow	10	scales	False	dorbs
29	7900	truth_conditions	bare	NA	generic	18	red	50	spots	True	sapers
29	10510	truth_conditions	bare	NA	some	19	green	90	shells	True	moxes
29	10880	truth_conditions	bare	NA	generic	20	pink	10	ears	True	elleps
29	13666	truth_conditions	bare	NA	some	21	blue	10	ears	True	cheebas
29	13440	truth_conditions	bare	NA	generic	22	orange	70	shells	True	luzaks
29	9316	truth_conditions	bare	NA	most	23	blue	90	teeth	True	thups
29	11292	truth_conditions	bare	NA	generic	24	blue	50	scales	True	reesles
29	9711	truth_conditions	bare	NA	generic	25	purple	90	tails	True	taifels
29	17923	truth_conditions	bare	NA	most	26	red	50	feathers	False	noobs
29	11120	truth_conditions	bare	NA	some	27	yellow	70	legs	True	ludinos
29	11676	truth_conditions	bare	NA	most	28	silver	50	stripes	False	frams
29	6225	truth_conditions	bare	NA	generic	29	yellow	30	fur	True	ollers
30	8887	implied_prevalence	bare	0	most	NA	copper	NA	spots	80	glippets
30	8683	implied_prevalence	bare	1	most	NA	gold	NA	stripes	85	daiths
30	7427	implied_prevalence	bare	2	generic	NA	orange	NA	ears	98	kazzes
30	3983	implied_prevalence	bare	3	generic	NA	red	NA	feathers	80	noobs
30	5164	implied_prevalence	bare	4	most	NA	orange	NA	tails	99	zorbs
30	5290	implied_prevalence	bare	5	generic	NA	silver	NA	stripes	85	frams
30	4162	implied_prevalence	bare	6	some	NA	pink	NA	ears	90	elleps
30	3930	implied_prevalence	bare	7	most	NA	green	NA	shells	70	moxes
30	5164	implied_prevalence	bare	8	some	NA	gold	NA	feathers	80	plovs
30	4196	implied_prevalence	bare	9	some	NA	green	NA	teeth	99	zoovs
30	3704	implied_prevalence	bare	10	some	NA	purple	NA	tails	80	taifels
30	3991	implied_prevalence	bare	11	generic	NA	purple	NA	shells	70	javs
30	5874	implied_prevalence	bare	12	generic	NA	yellow	NA	scales	80	dorbs
30	2961	implied_prevalence	bare	13	most	NA	red	NA	scales	80	blins
30	4046	implied_prevalence	bare	14	some	NA	blue	NA	scales	70	reesles
30	3524	implied_prevalence	bare	15	generic	NA	pink	NA	legs	70	feps
30	3500	implied_prevalence	bare	16	most	NA	pink	NA	teeth	80	krivels
30	7020	implied_prevalence	bare	17	generic	NA	copper	NA	fur	60	kweps
30	4786	implied_prevalence	bare	18	some	NA	copper	NA	stripes	50	mooks
30	3672	implied_prevalence	bare	19	generic	NA	blue	NA	teeth	40	thups
30	5242	implied_prevalence	bare	20	most	NA	silver	NA	fur	90	morseths
30	2766	implied_prevalence	bare	21	generic	NA	green	NA	tails	60	trufts
30	7016	implied_prevalence	bare	22	some	NA	orange	NA	shells	30	luzaks
30	2782	implied_prevalence	bare	23	some	NA	red	NA	spots	30	sapers
30	2804	implied_prevalence	bare	24	some	NA	yellow	NA	fur	20	ollers
30	3483	implied_prevalence	bare	25	most	NA	blue	NA	ears	89	cheebas
30	3586	implied_prevalence	bare	26	generic	NA	gold	NA	spots	55	stups
30	5102	implied_prevalence	bare	27	most	NA	purple	NA	feathers	90	lorches
30	4258	implied_prevalence	bare	28	most	NA	yellow	NA	legs	90	ludinos
30	3835	implied_prevalence	bare	29	some	NA	silver	NA	legs	25	ackles
31	14376	truth_conditions	bare	NA	generic	0	purple	90	tails	False	taifels
31	9662	truth_conditions	bare	NA	generic	1	silver	30	legs	False	ackles
31	4450	truth_conditions	bare	NA	generic	2	copper	10	stripes	False	mooks
31	3943	truth_conditions	bare	NA	most	3	green	30	shells	False	moxes
31	3605	truth_conditions	bare	NA	most	4	orange	30	tails	False	zorbs
31	2985	truth_conditions	bare	NA	some	5	purple	10	shells	False	javs
31	2556	truth_conditions	bare	NA	most	6	red	10	scales	False	blins
31	2686	truth_conditions	bare	NA	generic	7	red	50	spots	False	sapers
31	2499	truth_conditions	bare	NA	some	8	blue	90	teeth	False	thups
31	3197	truth_conditions	bare	NA	most	9	copper	90	spots	False	glippets
31	5059	truth_conditions	bare	NA	most	10	gold	70	stripes	False	daiths
31	2099	truth_conditions	bare	NA	most	11	purple	10	feathers	False	lorches
31	1701	truth_conditions	bare	NA	some	12	copper	70	fur	False	kweps
31	3500	truth_conditions	bare	NA	some	13	gold	50	spots	False	stups
31	1942	truth_conditions	bare	NA	some	14	orange	50	ears	False	kazzes
31	1792	truth_conditions	bare	NA	most	15	pink	50	teeth	False	krivels
31	1525	truth_conditions	bare	NA	some	16	red	30	feathers	False	noobs
31	1920	truth_conditions	bare	NA	some	17	silver	70	stripes	False	frams
31	1555	truth_conditions	bare	NA	some	18	green	90	tails	False	trufts
31	1364	truth_conditions	bare	NA	most	19	yellow	50	legs	False	ludinos
31	1962	truth_conditions	bare	NA	generic	20	pink	50	ears	False	elleps
31	4188	truth_conditions	bare	NA	most	21	silver	90	fur	True	morseths
31	2859	truth_conditions	bare	NA	generic	22	yellow	30	fur	False	ollers
31	3179	truth_conditions	bare	NA	most	23	blue	70	ears	True	cheebas
31	2167	truth_conditions	bare	NA	some	24	yellow	30	scales	True	dorbs
31	2842	truth_conditions	bare	NA	generic	25	blue	10	scales	False	reesles
31	2081	truth_conditions	bare	NA	generic	26	orange	70	shells	False	luzaks
31	1758	truth_conditions	bare	NA	generic	27	green	70	teeth	False	zoovs
31	1810	truth_conditions	bare	NA	some	28	pink	10	legs	True	feps
31	2044	truth_conditions	bare	NA	generic	29	gold	90	feathers	False	plovs
32	9130	truth_conditions	bare	NA	most	0	copper	70	stripes	True	mooks
32	9379	truth_conditions	bare	NA	generic	1	purple	50	feathers	True	lorches
32	7765	truth_conditions	bare	NA	some	2	yellow	50	scales	True	dorbs
32	7834	truth_conditions	bare	NA	some	3	purple	70	shells	True	javs
32	8308	truth_conditions	bare	NA	most	4	red	70	spots	True	sapers
32	13026	truth_conditions	bare	NA	generic	5	copper	30	spots	True	glippets
32	13425	truth_conditions	bare	NA	most	6	yellow	90	fur	True	ollers
32	4646	truth_conditions	bare	NA	some	7	green	10	tails	True	trufts
32	7251	truth_conditions	bare	NA	generic	8	orange	70	tails	True	zorbs
32	6115	truth_conditions	bare	NA	some	9	silver	30	stripes	True	frams
32	4471	truth_conditions	bare	NA	some	10	orange	70	ears	True	kazzes
32	5469	truth_conditions	bare	NA	generic	11	pink	10	teeth	True	krivels
32	5669	truth_conditions	bare	NA	some	12	red	90	feathers	True	noobs
32	4843	truth_conditions	bare	NA	generic	13	silver	30	fur	True	morseths
32	5584	truth_conditions	bare	NA	most	14	pink	30	ears	False	elleps
32	4430	truth_conditions	bare	NA	most	15	purple	90	tails	True	taifels
32	5001	truth_conditions	bare	NA	most	16	silver	30	legs	False	ackles
32	3495	truth_conditions	bare	NA	generic	17	red	90	scales	True	blins
32	6357	truth_conditions	bare	NA	some	18	gold	30	spots	True	stups
32	3485	truth_conditions	bare	NA	some	19	blue	10	teeth	True	thups
32	5140	truth_conditions	bare	NA	some	20	pink	90	legs	True	feps
32	4710	truth_conditions	bare	NA	some	21	copper	50	fur	True	kweps
32	4403	truth_conditions	bare	NA	most	22	gold	10	feathers	False	plovs
32	3513	truth_conditions	bare	NA	most	23	blue	10	scales	False	reesles
32	6807	truth_conditions	bare	NA	most	24	orange	50	shells	False	luzaks
32	5090	truth_conditions	bare	NA	generic	25	yellow	70	legs	True	ludinos
32	3736	truth_conditions	bare	NA	most	26	green	50	teeth	False	zoovs
32	3778	truth_conditions	bare	NA	generic	27	green	10	shells	True	moxes
32	3718	truth_conditions	bare	NA	generic	28	gold	50	stripes	True	daiths
32	3864	truth_conditions	bare	NA	generic	29	blue	90	ears	True	cheebas
33	11079	implied_prevalence	bare	0	generic	NA	copper	NA	spots	100	glippets
33	5432	implied_prevalence	bare	1	some	NA	green	NA	teeth	40	zoovs
33	4504	implied_prevalence	bare	2	some	NA	silver	NA	legs	40	ackles
33	6015	implied_prevalence	bare	3	most	NA	green	NA	tails	80	trufts
33	5567	implied_prevalence	bare	4	generic	NA	silver	NA	fur	100	morseths
33	3544	implied_prevalence	bare	5	generic	NA	red	NA	scales	100	blins
33	3248	implied_prevalence	bare	6	most	NA	yellow	NA	scales	80	dorbs
33	3624	implied_prevalence	bare	7	generic	NA	yellow	NA	legs	100	ludinos
33	3784	implied_prevalence	bare	8	generic	NA	gold	NA	stripes	100	daiths
33	4391	implied_prevalence	bare	9	some	NA	blue	NA	scales	50	reesles
33	2687	implied_prevalence	bare	10	some	NA	orange	NA	shells	40	luzaks
33	4352	implied_prevalence	bare	11	most	NA	orange	NA	ears	80	kazzes
33	4343	implied_prevalence	bare	12	generic	NA	pink	NA	teeth	100	krivels
33	2792	implied_prevalence	bare	13	some	NA	red	NA	spots	40	sapers
33	5382	implied_prevalence	bare	14	generic	NA	blue	NA	ears	100	cheebas
33	11375	implied_prevalence	bare	15	some	NA	gold	NA	feathers	40	plovs
33	4439	implied_prevalence	bare	16	most	NA	silver	NA	stripes	75	frams
33	4071	implied_prevalence	bare	17	most	NA	purple	NA	shells	80	javs
33	3960	implied_prevalence	bare	18	generic	NA	green	NA	shells	100	moxes
33	4905	implied_prevalence	bare	19	some	NA	purple	NA	tails	35	taifels
33	4063	implied_prevalence	bare	20	some	NA	pink	NA	ears	40	elleps
33	5400	implied_prevalence	bare	21	some	NA	yellow	NA	fur	40	ollers
33	3047	implied_prevalence	bare	22	most	NA	gold	NA	spots	80	stups
33	3423	implied_prevalence	bare	23	most	NA	blue	NA	teeth	80	thups
33	4911	implied_prevalence	bare	24	most	NA	copper	NA	fur	86	kweps
33	3391	implied_prevalence	bare	25	generic	NA	purple	NA	feathers	100	lorches
33	4159	implied_prevalence	bare	26	most	NA	pink	NA	legs	90	feps
33	3959	implied_prevalence	bare	27	most	NA	red	NA	feathers	80	noobs
33	4999	implied_prevalence	bare	28	some	NA	copper	NA	stripes	40	mooks
33	5727	implied_prevalence	bare	29	generic	NA	orange	NA	tails	100	zorbs
34	10806	implied_prevalence	bare	0	some	NA	green	NA	shells	20	moxes
34	5792	implied_prevalence	bare	1	most	NA	red	NA	spots	66	sapers
34	5591	implied_prevalence	bare	2	some	NA	yellow	NA	legs	20	ludinos
34	5576	implied_prevalence	bare	3	some	NA	purple	NA	feathers	20	lorches
34	4816	implied_prevalence	bare	4	most	NA	green	NA	teeth	66	zoovs
34	3384	implied_prevalence	bare	5	most	NA	orange	NA	shells	66	luzaks
34	3767	implied_prevalence	bare	6	most	NA	copper	NA	stripes	66	mooks
34	8696	implied_prevalence	bare	7	generic	NA	orange	NA	ears	100	kazzes
34	4216	implied_prevalence	bare	8	most	NA	pink	NA	ears	66	elleps
34	4527	implied_prevalence	bare	9	generic	NA	purple	NA	shells	100	javs
34	4703	implied_prevalence	bare	10	generic	NA	blue	NA	teeth	100	thups
34	4080	implied_prevalence	bare	11	generic	NA	silver	NA	stripes	100	frams
34	5296	implied_prevalence	bare	12	some	NA	silver	NA	fur	20	morseths
34	3880	implied_prevalence	bare	13	most	NA	yellow	NA	fur	66	ollers
34	4199	implied_prevalence	bare	14	some	NA	red	NA	scales	20	blins
34	4616	implied_prevalence	bare	15	generic	NA	pink	NA	legs	100	feps
34	5272	implied_prevalence	bare	16	generic	NA	green	NA	tails	100	trufts
34	4313	implied_prevalence	bare	17	some	NA	pink	NA	teeth	20	krivels
34	4270	implied_prevalence	bare	18	some	NA	orange	NA	tails	20	zorbs
34	3531	implied_prevalence	bare	19	most	NA	silver	NA	legs	66	ackles
34	5072	implied_prevalence	bare	20	generic	NA	yellow	NA	scales	100	dorbs
34	4277	implied_prevalence	bare	21	most	NA	purple	NA	tails	66	taifels
34	4004	implied_prevalence	bare	22	most	NA	blue	NA	scales	66	reesles
34	4855	implied_prevalence	bare	23	some	NA	gold	NA	stripes	20	daiths
34	3925	implied_prevalence	bare	24	most	NA	gold	NA	feathers	66	plovs
34	3739	implied_prevalence	bare	25	generic	NA	red	NA	feathers	100	noobs
34	5689	implied_prevalence	bare	26	generic	NA	gold	NA	spots	100	stups
34	4060	implied_prevalence	bare	27	some	NA	blue	NA	ears	20	cheebas
34	3973	implied_prevalence	bare	28	generic	NA	copper	NA	fur	100	kweps
34	5545	implied_prevalence	bare	29	some	NA	copper	NA	spots	20	glippets
35	5283	truth_conditions	bare	NA	generic	0	copper	10	fur	True	kweps
35	2914	truth_conditions	bare	NA	generic	1	orange	70	ears	True	kazzes
35	2998	truth_conditions	bare	NA	generic	2	blue	90	teeth	True	thups
35	2487	truth_conditions	bare	NA	most	3	blue	50	scales	True	reesles
35	2847	truth_conditions	bare	NA	generic	4	pink	50	legs	True	feps
35	2016	truth_conditions	bare	NA	generic	5	purple	90	shells	True	javs
35	4144	truth_conditions	bare	NA	most	6	gold	30	feathers	False	plovs
35	2231	truth_conditions	bare	NA	some	7	yellow	10	legs	True	ludinos
35	1951	truth_conditions	bare	NA	some	8	purple	70	feathers	True	lorches
35	2431	truth_conditions	bare	NA	some	9	silver	90	fur	True	morseths
35	1784	truth_conditions	bare	NA	most	10	copper	90	stripes	True	mooks
35	1630	truth_conditions	bare	NA	most	11	red	70	spots	True	sapers
35	2792	truth_conditions	bare	NA	most	12	pink	10	ears	False	elleps
35	1456	truth_conditions	bare	NA	most	13	yellow	90	fur	True	ollers
35	1824	truth_conditions	bare	NA	generic	14	green	70	tails	True	trufts
35	984	truth_conditions	bare	NA	generic	15	silver	30	stripes	True	frams
35	847	truth_conditions	bare	NA	generic	16	red	30	feathers	True	noobs
35	1856	truth_conditions	bare	NA	generic	17	yellow	50	scales	True	dorbs
35	1576	truth_conditions	bare	NA	some	18	pink	50	teeth	True	krivels
35	2519	truth_conditions	bare	NA	most	19	purple	10	tails	False	taifels
35	2632	truth_conditions	bare	NA	generic	20	gold	10	spots	True	stups
35	1671	truth_conditions	bare	NA	some	21	red	90	scales	True	blins
35	1040	truth_conditions	bare	NA	most	22	silver	70	legs	True	ackles
35	688	truth_conditions	bare	NA	some	23	orange	50	tails	True	zorbs
35	760	truth_conditions	bare	NA	some	24	gold	30	stripes	True	daiths
35	651	truth_conditions	bare	NA	some	25	green	30	shells	True	moxes
35	693	truth_conditions	bare	NA	some	26	blue	10	ears	True	cheebas
35	782	truth_conditions	bare	NA	most	27	green	50	teeth	True	zoovs
35	783	truth_conditions	bare	NA	some	28	copper	70	spots	True	glippets
35	672	truth_conditions	bare	NA	most	29	orange	30	shells	True	luzaks
36	8293	implied_prevalence	bare	0	generic	NA	green	NA	tails	90	trufts
36	3896	implied_prevalence	bare	1	some	NA	silver	NA	legs	30	ackles
36	3239	implied_prevalence	bare	2	some	NA	copper	NA	stripes	40	mooks
36	4304	implied_prevalence	bare	3	most	NA	green	NA	shells	85	moxes
36	2519	implied_prevalence	bare	4	most	NA	silver	NA	fur	75	morseths
36	2880	implied_prevalence	bare	5	generic	NA	pink	NA	legs	90	feps
36	3478	implied_prevalence	bare	6	generic	NA	blue	NA	teeth	90	thups
36	2951	implied_prevalence	bare	7	generic	NA	yellow	NA	scales	90	dorbs
36	2536	implied_prevalence	bare	8	generic	NA	copper	NA	fur	90	kweps
36	3447	implied_prevalence	bare	9	most	NA	yellow	NA	legs	75	ludinos
36	3623	implied_prevalence	bare	10	some	NA	red	NA	spots	40	sapers
36	2655	implied_prevalence	bare	11	generic	NA	silver	NA	stripes	90	frams
36	3887	implied_prevalence	bare	12	some	NA	purple	NA	tails	80	taifels
36	5064	implied_prevalence	bare	13	most	NA	copper	NA	spots	90	glippets
36	4120	implied_prevalence	bare	14	some	NA	orange	NA	shells	30	luzaks
36	3200	implied_prevalence	bare	15	generic	NA	purple	NA	shells	95	javs
36	3232	implied_prevalence	bare	16	some	NA	gold	NA	feathers	30	plovs
36	4055	implied_prevalence	bare	17	generic	NA	gold	NA	spots	90	stups
36	4895	implied_prevalence	bare	18	some	NA	blue	NA	scales	30	reesles
36	2599	implied_prevalence	bare	19	most	NA	purple	NA	feathers	90	lorches
36	3448	implied_prevalence	bare	20	generic	NA	red	NA	feathers	90	noobs
36	7288	implied_prevalence	bare	21	most	NA	orange	NA	tails	75	zorbs
36	4408	implied_prevalence	bare	22	some	NA	green	NA	teeth	20	zoovs
36	3703	implied_prevalence	bare	23	some	NA	yellow	NA	fur	40	ollers
36	3831	implied_prevalence	bare	24	most	NA	gold	NA	stripes	80	daiths
36	6432	implied_prevalence	bare	25	generic	NA	orange	NA	ears	90	kazzes
36	4263	implied_prevalence	bare	26	most	NA	blue	NA	ears	70	cheebas
36	5416	implied_prevalence	bare	27	some	NA	pink	NA	ears	45	elleps
36	5848	implied_prevalence	bare	28	most	NA	red	NA	scales	90	blins
36	6136	implied_prevalence	bare	29	most	NA	pink	NA	teeth	80	krivels
37	6524	implied_prevalence	bare	0	generic	NA	green	NA	shells	100	moxes
37	6518	implied_prevalence	bare	1	most	NA	blue	NA	teeth	80	thups
37	5426	implied_prevalence	bare	2	generic	NA	blue	NA	ears	100	cheebas
37	6412	implied_prevalence	bare	3	generic	NA	pink	NA	teeth	100	krivels
37	5346	implied_prevalence	bare	4	some	NA	blue	NA	scales	40	reesles
37	6200	implied_prevalence	bare	5	generic	NA	gold	NA	stripes	100	daiths
37	8214	implied_prevalence	bare	6	some	NA	purple	NA	tails	30	taifels
37	10985	implied_prevalence	bare	7	most	NA	purple	NA	shells	80	javs
37	4519	implied_prevalence	bare	8	most	NA	copper	NA	fur	80	kweps
37	3624	implied_prevalence	bare	9	most	NA	red	NA	feathers	80	noobs
37	6785	implied_prevalence	bare	10	some	NA	green	NA	teeth	35	zoovs
37	3968	implied_prevalence	bare	11	generic	NA	orange	NA	tails	100	zorbs
37	4318	implied_prevalence	bare	12	some	NA	copper	NA	stripes	35	mooks
37	5477	implied_prevalence	bare	13	generic	NA	purple	NA	feathers	100	lorches
37	5154	implied_prevalence	bare	14	some	NA	red	NA	spots	35	sapers
37	4309	implied_prevalence	bare	15	generic	NA	yellow	NA	legs	100	ludinos
37	11254	implied_prevalence	bare	16	most	NA	yellow	NA	scales	80	dorbs
37	9920	implied_prevalence	bare	17	some	NA	gold	NA	feathers	35	plovs
37	4922	implied_prevalence	bare	18	generic	NA	red	NA	scales	100	blins
37	4529	implied_prevalence	bare	19	some	NA	pink	NA	ears	35	elleps
37	5633	implied_prevalence	bare	20	generic	NA	silver	NA	fur	100	morseths
37	5668	implied_prevalence	bare	21	some	NA	orange	NA	shells	35	luzaks
37	4264	implied_prevalence	bare	22	some	NA	yellow	NA	fur	35	ollers
37	9348	implied_prevalence	bare	23	most	NA	green	NA	tails	80	trufts
37	5059	implied_prevalence	bare	24	most	NA	gold	NA	spots	80	stups
37	3647	implied_prevalence	bare	25	most	NA	pink	NA	legs	80	feps
37	4451	implied_prevalence	bare	26	generic	NA	copper	NA	spots	100	glippets
37	18643	implied_prevalence	bare	27	some	NA	silver	NA	legs	40	ackles
37	4036	implied_prevalence	bare	28	most	NA	orange	NA	ears	80	kazzes
37	4325	implied_prevalence	bare	29	most	NA	silver	NA	stripes	75	frams
38	7723	implied_prevalence	bare	0	generic	NA	purple	NA	shells	99	javs
38	6351	implied_prevalence	bare	1	some	NA	green	NA	shells	30	moxes
38	4007	implied_prevalence	bare	2	some	NA	silver	NA	fur	25	morseths
38	5626	implied_prevalence	bare	3	some	NA	yellow	NA	legs	25	ludinos
38	4561	implied_prevalence	bare	4	most	NA	pink	NA	ears	75	elleps
38	4909	implied_prevalence	bare	5	some	NA	blue	NA	ears	25	cheebas
38	3767	implied_prevalence	bare	6	most	NA	silver	NA	legs	75	ackles
38	3559	implied_prevalence	bare	7	generic	NA	pink	NA	legs	100	feps
38	3043	implied_prevalence	bare	8	generic	NA	blue	NA	teeth	100	thups
38	3296	implied_prevalence	bare	9	generic	NA	yellow	NA	scales	100	dorbs
38	3235	implied_prevalence	bare	10	most	NA	orange	NA	shells	75	luzaks
38	3512	implied_prevalence	bare	11	most	NA	red	NA	spots	75	sapers
38	5138	implied_prevalence	bare	12	some	NA	purple	NA	feathers	25	lorches
38	3330	implied_prevalence	bare	13	generic	NA	red	NA	feathers	100	noobs
38	3276	implied_prevalence	bare	14	generic	NA	green	NA	tails	100	trufts
38	4130	implied_prevalence	bare	15	some	NA	red	NA	scales	25	blins
38	3453	implied_prevalence	bare	16	generic	NA	copper	NA	fur	100	kweps
38	3317	implied_prevalence	bare	17	most	NA	blue	NA	scales	75	reesles
38	3049	implied_prevalence	bare	18	most	NA	gold	NA	feathers	75	plovs
38	4494	implied_prevalence	bare	19	some	NA	gold	NA	stripes	25	daiths
38	3218	implied_prevalence	bare	20	most	NA	purple	NA	tails	75	taifels
38	2898	implied_prevalence	bare	21	most	NA	green	NA	teeth	75	zoovs
38	4393	implied_prevalence	bare	22	generic	NA	gold	NA	spots	100	stups
38	4812	implied_prevalence	bare	23	most	NA	copper	NA	stripes	75	mooks
38	7902	implied_prevalence	bare	24	some	NA	pink	NA	teeth	25	krivels
38	3871	implied_prevalence	bare	25	some	NA	orange	NA	tails	25	zorbs
38	3464	implied_prevalence	bare	26	generic	NA	silver	NA	stripes	100	frams
38	3345	implied_prevalence	bare	27	some	NA	copper	NA	spots	25	glippets
38	3518	implied_prevalence	bare	28	most	NA	yellow	NA	fur	100	ollers
38	3841	implied_prevalence	bare	29	generic	NA	orange	NA	ears	100	kazzes
39	9761	truth_conditions	bare	NA	some	0	gold	30	spots	True	stups
39	8527	truth_conditions	bare	NA	most	1	gold	10	feathers	False	plovs
39	10050	truth_conditions	bare	NA	some	2	orange	50	ears	True	kazzes
39	6065	truth_conditions	bare	NA	some	3	red	10	feathers	True	noobs
39	5295	truth_conditions	bare	NA	most	4	green	10	teeth	False	zoovs
39	5184	truth_conditions	bare	NA	most	5	orange	70	shells	True	luzaks
39	6312	truth_conditions	bare	NA	generic	6	gold	90	stripes	False	daiths
39	11374	truth_conditions	bare	NA	generic	7	pink	50	teeth	False	krivels
39	4978	truth_conditions	bare	NA	most	8	copper	30	stripes	False	mooks
39	4576	truth_conditions	bare	NA	most	9	silver	50	legs	False	ackles
39	3941	truth_conditions	bare	NA	generic	10	green	70	shells	False	moxes
39	3963	truth_conditions	bare	NA	most	11	blue	90	scales	True	reesles
39	4311	truth_conditions	bare	NA	most	12	red	50	spots	False	sapers
39	5376	truth_conditions	bare	NA	generic	13	yellow	50	legs	False	ludinos
39	5116	truth_conditions	bare	NA	some	14	copper	70	fur	True	kweps
39	26572	truth_conditions	bare	NA	generic	15	red	10	scales	False	blins
39	4696	truth_conditions	bare	NA	most	16	yellow	70	fur	True	ollers
39	4039	truth_conditions	bare	NA	some	17	purple	50	shells	True	javs
39	5566	truth_conditions	bare	NA	some	18	pink	90	legs	True	feps
39	4660	truth_conditions	bare	NA	generic	19	silver	30	fur	False	morseths
39	3791	truth_conditions	bare	NA	some	20	silver	90	stripes	True	frams
39	3709	truth_conditions	bare	NA	generic	21	orange	30	tails	False	zorbs
39	7953	truth_conditions	bare	NA	generic	22	blue	10	ears	False	cheebas
39	5634	truth_conditions	bare	NA	generic	23	copper	70	spots	False	glippets
39	3776	truth_conditions	bare	NA	some	24	yellow	10	scales	True	dorbs
39	12790	truth_conditions	bare	NA	most	25	purple	90	tails	True	taifels
39	4333	truth_conditions	bare	NA	most	26	pink	30	ears	False	elleps
39	5626	truth_conditions	bare	NA	generic	27	purple	90	feathers	False	lorches
39	153001	truth_conditions	bare	NA	some	28	green	30	tails	True	trufts
39	6462	truth_conditions	bare	NA	some	29	blue	70	teeth	True	thups
40	10602	implied_prevalence	bare	0	most	NA	green	NA	shells	75	moxes
40	6815	implied_prevalence	bare	1	generic	NA	green	NA	teeth	100	zoovs
40	10384	implied_prevalence	bare	2	some	NA	green	NA	tails	50	trufts
40	6152	implied_prevalence	bare	3	some	NA	blue	NA	teeth	50	thups
40	6293	implied_prevalence	bare	4	most	NA	purple	NA	feathers	75	lorches
40	7971	implied_prevalence	bare	5	some	NA	red	NA	feathers	50	noobs
40	5867	implied_prevalence	bare	6	some	NA	yellow	NA	scales	50	dorbs
40	7885	implied_prevalence	bare	7	some	NA	copper	NA	fur	50	kweps
40	5797	implied_prevalence	bare	8	generic	NA	blue	NA	scales	100	reesles
40	6933	implied_prevalence	bare	9	most	NA	gold	NA	stripes	75	daiths
40	6015	implied_prevalence	bare	10	some	NA	silver	NA	stripes	50	frams
40	5270	implied_prevalence	bare	11	most	NA	blue	NA	ears	75	cheebas
40	8217	implied_prevalence	bare	12	some	NA	gold	NA	spots	50	stups
40	5082	implied_prevalence	bare	13	generic	NA	yellow	NA	fur	100	ollers
40	5931	implied_prevalence	bare	14	generic	NA	pink	NA	ears	100	elleps
40	5433	implied_prevalence	bare	15	some	NA	orange	NA	ears	50	kazzes
40	5499	implied_prevalence	bare	16	most	NA	copper	NA	spots	75	glippets
40	6734	implied_prevalence	bare	17	generic	NA	gold	NA	feathers	100	plovs
40	6399	implied_prevalence	bare	18	generic	NA	purple	NA	tails	100	taifels
40	5101	implied_prevalence	bare	19	generic	NA	orange	NA	shells	100	luzaks
40	7268	implied_prevalence	bare	20	most	NA	red	NA	scales	75	blins
40	5883	implied_prevalence	bare	21	generic	NA	red	NA	spots	100	sapers
40	5053	implied_prevalence	bare	22	most	NA	pink	NA	teeth	75	krivels
40	5461	implied_prevalence	bare	23	some	NA	pink	NA	legs	75	feps
40	6833	implied_prevalence	bare	24	generic	NA	copper	NA	stripes	100	mooks
40	6233	implied_prevalence	bare	25	most	NA	orange	NA	tails	75	zorbs
40	6467	implied_prevalence	bare	26	some	NA	purple	NA	shells	50	javs
40	5367	implied_prevalence	bare	27	most	NA	silver	NA	fur	75	morseths
40	7533	implied_prevalence	bare	28	most	NA	yellow	NA	legs	75	ludinos
40	5118	implied_prevalence	bare	29	generic	NA	silver	NA	legs	100	ackles
41	13713	implied_prevalence	bare	0	most	NA	purple	NA	feathers	90	lorches
41	5635	implied_prevalence	bare	1	generic	NA	yellow	NA	scales	100	dorbs
41	4660	implied_prevalence	bare	2	most	NA	blue	NA	ears	90	cheebas
41	4348	implied_prevalence	bare	3	most	NA	yellow	NA	legs	90	ludinos
41	4184	implied_prevalence	bare	4	some	NA	gold	NA	feathers	50	plovs
41	3616	implied_prevalence	bare	5	generic	NA	gold	NA	spots	100	stups
41	3312	implied_prevalence	bare	6	most	NA	gold	NA	stripes	90	daiths
41	3104	implied_prevalence	bare	7	generic	NA	purple	NA	shells	100	javs
41	3120	implied_prevalence	bare	8	most	NA	orange	NA	tails	90	zorbs
41	3484	implied_prevalence	bare	9	some	NA	blue	NA	scales	50	reesles
41	3016	implied_prevalence	bare	10	generic	NA	green	NA	tails	100	trufts
41	3232	implied_prevalence	bare	11	generic	NA	orange	NA	ears	100	kazzes
41	4132	implied_prevalence	bare	12	some	NA	orange	NA	shells	50	luzaks
41	5375	implied_prevalence	bare	13	most	NA	pink	NA	teeth	90	krivels
41	4388	implied_prevalence	bare	14	most	NA	red	NA	scales	90	blins
41	4884	implied_prevalence	bare	15	most	NA	green	NA	shells	90	moxes
41	4160	implied_prevalence	bare	16	some	NA	red	NA	spots	50	sapers
41	4620	implied_prevalence	bare	17	generic	NA	copper	NA	fur	100	kweps
41	3571	implied_prevalence	bare	18	generic	NA	red	NA	feathers	100	noobs
41	3715	implied_prevalence	bare	19	some	NA	silver	NA	legs	50	ackles
41	3823	implied_prevalence	bare	20	most	NA	copper	NA	spots	90	glippets
41	3939	implied_prevalence	bare	21	some	NA	purple	NA	tails	50	taifels
41	3499	implied_prevalence	bare	22	generic	NA	blue	NA	teeth	100	thups
41	4179	implied_prevalence	bare	23	generic	NA	pink	NA	legs	100	feps
41	3404	implied_prevalence	bare	24	some	NA	yellow	NA	fur	50	ollers
41	3956	implied_prevalence	bare	25	some	NA	green	NA	teeth	50	zoovs
41	3376	implied_prevalence	bare	26	most	NA	silver	NA	fur	90	morseths
41	3276	implied_prevalence	bare	27	some	NA	copper	NA	stripes	50	mooks
41	3724	implied_prevalence	bare	28	generic	NA	silver	NA	stripes	100	frams
41	4024	implied_prevalence	bare	29	some	NA	pink	NA	ears	50	elleps
42	9032	implied_prevalence	bare	0	generic	NA	orange	NA	tails	100	zorbs
42	13578	implied_prevalence	bare	1	some	NA	orange	NA	ears	30	kazzes
42	11923	implied_prevalence	bare	2	most	NA	blue	NA	scales	80	reesles
42	7136	implied_prevalence	bare	3	generic	NA	silver	NA	fur	100	morseths
42	9497	implied_prevalence	bare	4	some	NA	yellow	NA	scales	30	dorbs
42	6845	implied_prevalence	bare	5	generic	NA	blue	NA	ears	100	cheebas
42	10789	implied_prevalence	bare	6	some	NA	silver	NA	stripes	25	frams
42	9202	implied_prevalence	bare	7	most	NA	silver	NA	legs	80	ackles
42	14565	implied_prevalence	bare	8	some	NA	green	NA	tails	30	trufts
42	6910	implied_prevalence	bare	9	most	NA	yellow	NA	fur	80	ollers
42	6058	implied_prevalence	bare	10	generic	NA	red	NA	scales	100	blins
42	4809	implied_prevalence	bare	11	generic	NA	gold	NA	stripes	100	daiths
42	6509	implied_prevalence	bare	12	most	NA	red	NA	spots	75	sapers
42	5590	implied_prevalence	bare	13	most	NA	copper	NA	stripes	80	mooks
42	6657	implied_prevalence	bare	14	most	NA	gold	NA	feathers	80	plovs
42	5767	implied_prevalence	bare	15	some	NA	blue	NA	teeth	30	thups
42	4694	implied_prevalence	bare	16	most	NA	green	NA	teeth	80	zoovs
42	6766	implied_prevalence	bare	17	generic	NA	yellow	NA	legs	100	ludinos
42	10557	implied_prevalence	bare	18	some	NA	red	NA	feathers	25	noobs
42	6034	implied_prevalence	bare	19	most	NA	orange	NA	shells	80	luzaks
42	7117	implied_prevalence	bare	20	some	NA	copper	NA	fur	30	kweps
42	6093	implied_prevalence	bare	21	most	NA	pink	NA	ears	80	elleps
42	5200	implied_prevalence	bare	22	generic	NA	green	NA	shells	100	moxes
42	10958	implied_prevalence	bare	23	generic	NA	copper	NA	spots	100	glippets
42	9969	implied_prevalence	bare	24	most	NA	purple	NA	tails	80	taifels
42	5880	implied_prevalence	bare	25	generic	NA	purple	NA	feathers	100	lorches
42	7328	implied_prevalence	bare	26	some	NA	pink	NA	legs	30	feps
42	9506	implied_prevalence	bare	27	some	NA	gold	NA	spots	30	stups
42	5549	implied_prevalence	bare	28	generic	NA	pink	NA	teeth	100	krivels
42	5801	implied_prevalence	bare	29	some	NA	purple	NA	shells	30	javs
43	6920	truth_conditions	bare	NA	some	0	gold	50	feathers	True	plovs
43	5666	truth_conditions	bare	NA	most	1	gold	70	spots	True	stups
43	13679	truth_conditions	bare	NA	generic	2	red	50	scales	True	blins
43	3308	truth_conditions	bare	NA	some	3	copper	10	stripes	True	mooks
43	6041	truth_conditions	bare	NA	some	4	green	90	teeth	True	zoovs
43	4815	truth_conditions	bare	NA	most	5	purple	10	shells	False	javs
43	3578	truth_conditions	bare	NA	generic	6	yellow	10	legs	True	ludinos
43	4409	truth_conditions	bare	NA	generic	7	pink	50	teeth	True	krivels
43	8887	truth_conditions	bare	NA	some	8	orange	90	shells	True	luzaks
43	5929	truth_conditions	bare	NA	most	9	silver	50	stripes	False	frams
43	4241	truth_conditions	bare	NA	most	10	copper	70	fur	True	kweps
43	5108	truth_conditions	bare	NA	most	11	yellow	30	scales	False	dorbs
43	3455	truth_conditions	bare	NA	generic	12	copper	70	spots	True	glippets
43	3239	truth_conditions	bare	NA	most	13	orange	10	ears	False	kazzes
43	3037	truth_conditions	bare	NA	generic	14	silver	10	fur	True	morseths
43	3173	truth_conditions	bare	NA	some	15	yellow	70	fur	True	ollers
43	2452	truth_conditions	bare	NA	generic	16	orange	30	tails	True	zorbs
43	3117	truth_conditions	bare	NA	generic	17	blue	70	ears	True	cheebas
43	9720	truth_conditions	bare	NA	most	18	red	50	feathers	False	noobs
43	3577	truth_conditions	bare	NA	some	19	purple	30	tails	True	taifels
43	2768	truth_conditions	bare	NA	some	20	silver	10	legs	True	ackles
43	3228	truth_conditions	bare	NA	some	21	pink	70	ears	True	elleps
43	3285	truth_conditions	bare	NA	generic	22	gold	90	stripes	True	daiths
43	3487	truth_conditions	bare	NA	generic	23	purple	90	feathers	True	lorches
43	3397	truth_conditions	bare	NA	most	24	green	30	tails	False	trufts
43	4061	truth_conditions	bare	NA	generic	25	green	30	shells	True	moxes
43	2857	truth_conditions	bare	NA	some	26	red	50	spots	True	sapers
43	2095	truth_conditions	bare	NA	most	27	pink	90	legs	True	feps
43	3259	truth_conditions	bare	NA	some	28	blue	30	scales	True	reesles
43	2373	truth_conditions	bare	NA	most	29	blue	90	teeth	True	thups
44	10350	implied_prevalence	bare	0	some	NA	silver	NA	stripes	30	frams
44	3999	implied_prevalence	bare	1	some	NA	green	NA	tails	30	trufts
44	5883	implied_prevalence	bare	2	generic	NA	silver	NA	fur	100	morseths
44	6748	implied_prevalence	bare	3	most	NA	blue	NA	scales	74	reesles
44	2873	implied_prevalence	bare	4	generic	NA	green	NA	shells	70	moxes
44	5797	implied_prevalence	bare	5	generic	NA	red	NA	scales	100	blins
44	5682	implied_prevalence	bare	6	most	NA	yellow	NA	fur	70	ollers
44	5383	implied_prevalence	bare	7	generic	NA	copper	NA	spots	100	glippets
44	5166	implied_prevalence	bare	8	most	NA	orange	NA	shells	70	luzaks
44	14486	implied_prevalence	bare	9	most	NA	green	NA	teeth	70	zoovs
44	3595	implied_prevalence	bare	10	generic	NA	orange	NA	tails	100	zorbs
44	3084	implied_prevalence	bare	11	some	NA	orange	NA	ears	70	kazzes
44	2932	implied_prevalence	bare	12	generic	NA	blue	NA	ears	100	cheebas
44	3335	implied_prevalence	bare	13	generic	NA	yellow	NA	legs	100	ludinos
44	2936	implied_prevalence	bare	14	some	NA	pink	NA	legs	70	feps
44	4196	implied_prevalence	bare	15	most	NA	silver	NA	legs	85	ackles
44	2648	implied_prevalence	bare	16	most	NA	pink	NA	ears	87	elleps
44	3368	implied_prevalence	bare	17	some	NA	yellow	NA	scales	20	dorbs
44	27684	implied_prevalence	bare	18	most	NA	red	NA	spots	85	sapers
44	3815	implied_prevalence	bare	19	most	NA	gold	NA	feathers	86	plovs
44	4534	implied_prevalence	bare	20	generic	NA	gold	NA	stripes	99	daiths
44	2915	implied_prevalence	bare	21	most	NA	purple	NA	tails	85	taifels
44	2419	implied_prevalence	bare	22	most	NA	copper	NA	stripes	85	mooks
44	2801	implied_prevalence	bare	23	generic	NA	purple	NA	feathers	100	lorches
44	4191	implied_prevalence	bare	24	generic	NA	pink	NA	teeth	100	krivels
44	2675	implied_prevalence	bare	25	some	NA	gold	NA	spots	100	stups
44	2863	implied_prevalence	bare	26	some	NA	red	NA	feathers	30	noobs
44	2334	implied_prevalence	bare	27	some	NA	copper	NA	fur	40	kweps
44	3735	implied_prevalence	bare	28	some	NA	purple	NA	shells	30	javs
44	5218	implied_prevalence	bare	29	some	NA	blue	NA	teeth	30	thups
45	6851	implied_prevalence	bare	0	some	NA	orange	NA	ears	25	kazzes
45	5851	implied_prevalence	bare	1	most	NA	red	NA	scales	80	blins
45	3415	implied_prevalence	bare	2	most	NA	pink	NA	teeth	80	krivels
45	1825	implied_prevalence	bare	3	most	NA	green	NA	shells	80	moxes
45	2205	implied_prevalence	bare	4	some	NA	copper	NA	fur	25	kweps
45	2737	implied_prevalence	bare	5	generic	NA	green	NA	teeth	100	zoovs
45	3489	implied_prevalence	bare	6	generic	NA	blue	NA	scales	100	reesles
45	2951	implied_prevalence	bare	7	most	NA	copper	NA	spots	80	glippets
45	2317	implied_prevalence	bare	8	generic	NA	orange	NA	shells	100	luzaks
45	1974	implied_prevalence	bare	9	some	NA	silver	NA	stripes	25	frams
45	1884	implied_prevalence	bare	10	most	NA	orange	NA	tails	80	zorbs
45	1867	implied_prevalence	bare	11	most	NA	gold	NA	stripes	80	daiths
45	3326	implied_prevalence	bare	12	generic	NA	silver	NA	legs	100	ackles
45	2573	implied_prevalence	bare	13	most	NA	blue	NA	ears	80	cheebas
45	1900	implied_prevalence	bare	14	some	NA	gold	NA	spots	25	stups
45	2627	implied_prevalence	bare	15	some	NA	red	NA	feathers	25	noobs
45	2673	implied_prevalence	bare	16	generic	NA	yellow	NA	fur	100	ollers
45	1966	implied_prevalence	bare	17	some	NA	pink	NA	legs	25	feps
45	2325	implied_prevalence	bare	18	generic	NA	pink	NA	ears	100	elleps
45	2552	implied_prevalence	bare	19	some	NA	green	NA	tails	25	trufts
45	1973	implied_prevalence	bare	20	generic	NA	purple	NA	tails	100	taifels
45	2901	implied_prevalence	bare	21	some	NA	yellow	NA	scales	25	dorbs
45	2519	implied_prevalence	bare	22	most	NA	silver	NA	fur	80	morseths
45	1723	implied_prevalence	bare	23	generic	NA	gold	NA	feathers	100	plovs
45	2082	implied_prevalence	bare	24	most	NA	purple	NA	feathers	80	lorches
45	3292	implied_prevalence	bare	25	most	NA	yellow	NA	legs	80	ludinos
45	2548	implied_prevalence	bare	26	generic	NA	copper	NA	stripes	100	mooks
45	3461	implied_prevalence	bare	27	generic	NA	red	NA	spots	100	sapers
45	2492	implied_prevalence	bare	28	some	NA	blue	NA	teeth	25	thups
45	2458	implied_prevalence	bare	29	some	NA	purple	NA	shells	25	javs
46	8629	truth_conditions	bare	NA	most	0	copper	50	fur	False	kweps
46	3590	truth_conditions	bare	NA	most	1	silver	70	stripes	True	frams
46	6104	truth_conditions	bare	NA	generic	2	green	30	shells	False	moxes
46	3832	truth_conditions	bare	NA	most	3	yellow	10	scales	False	dorbs
46	4890	truth_conditions	bare	NA	most	4	red	90	feathers	True	noobs
46	7223	truth_conditions	bare	NA	some	5	green	30	teeth	True	zoovs
46	3461	truth_conditions	bare	NA	some	6	copper	90	stripes	True	mooks
46	3187	truth_conditions	bare	NA	most	7	orange	10	ears	False	kazzes
46	3349	truth_conditions	bare	NA	most	8	purple	50	shells	False	javs
46	2669	truth_conditions	bare	NA	some	9	pink	70	ears	True	elleps
46	3200	truth_conditions	bare	NA	generic	10	copper	90	spots	True	glippets
46	5504	truth_conditions	bare	NA	generic	11	purple	10	feathers	False	lorches
46	2946	truth_conditions	bare	NA	some	12	silver	50	legs	True	ackles
46	2304	truth_conditions	bare	NA	most	13	blue	70	teeth	True	thups
46	2246	truth_conditions	bare	NA	some	14	red	90	spots	True	sapers
46	5415	truth_conditions	bare	NA	generic	15	red	70	scales	False	blins
46	2728	truth_conditions	bare	NA	some	16	purple	10	tails	True	taifels
46	2280	truth_conditions	bare	NA	some	17	gold	50	feathers	True	plovs
46	2907	truth_conditions	bare	NA	most	18	green	30	tails	False	trufts
46	2392	truth_conditions	bare	NA	some	19	blue	30	scales	True	reesles
46	3109	truth_conditions	bare	NA	generic	20	orange	70	tails	False	zorbs
46	3048	truth_conditions	bare	NA	some	21	orange	70	shells	True	luzaks
46	2827	truth_conditions	bare	NA	most	22	gold	30	spots	False	stups
46	3091	truth_conditions	bare	NA	generic	23	blue	50	ears	False	cheebas
46	2661	truth_conditions	bare	NA	generic	24	gold	10	stripes	False	daiths
46	2759	truth_conditions	bare	NA	generic	25	silver	90	fur	True	morseths
46	3080	truth_conditions	bare	NA	generic	26	pink	30	teeth	False	krivels
46	3182	truth_conditions	bare	NA	some	27	yellow	10	fur	True	ollers
46	2735	truth_conditions	bare	NA	generic	28	yellow	50	legs	False	ludinos
46	2145	truth_conditions	bare	NA	most	29	pink	90	legs	True	feps
47	6043	implied_prevalence	bare	0	generic	NA	gold	NA	spots	18	stups
47	6241	implied_prevalence	bare	1	some	NA	yellow	NA	legs	45	ludinos
47	4769	implied_prevalence	bare	2	most	NA	pink	NA	ears	26	elleps
47	2778	implied_prevalence	bare	3	generic	NA	copper	NA	fur	78	kweps
47	4315	implied_prevalence	bare	4	most	NA	red	NA	spots	79	sapers
47	2734	implied_prevalence	bare	5	some	NA	copper	NA	spots	55	glippets
47	3902	implied_prevalence	bare	6	generic	NA	purple	NA	shells	12	javs
47	3798	implied_prevalence	bare	7	some	NA	silver	NA	fur	88	morseths
47	4291	implied_prevalence	bare	8	generic	NA	yellow	NA	scales	24	dorbs
47	1922	implied_prevalence	bare	9	generic	NA	blue	NA	teeth	25	thups
47	1602	implied_prevalence	bare	10	most	NA	orange	NA	shells	45	luzaks
47	2274	implied_prevalence	bare	11	most	NA	silver	NA	legs	39	ackles
47	2265	implied_prevalence	bare	12	some	NA	orange	NA	tails	78	zorbs
47	2052	implied_prevalence	bare	13	some	NA	gold	NA	stripes	25	daiths
47	1826	implied_prevalence	bare	14	some	NA	blue	NA	ears	35	cheebas
47	1664	implied_prevalence	bare	15	some	NA	pink	NA	teeth	78	krivels
47	2094	implied_prevalence	bare	16	generic	NA	green	NA	tails	36	trufts
47	1671	implied_prevalence	bare	17	most	NA	yellow	NA	fur	78	ollers
47	1588	implied_prevalence	bare	18	most	NA	purple	NA	tails	45	taifels
47	2409	implied_prevalence	bare	19	generic	NA	red	NA	feathers	98	noobs
47	1659	implied_prevalence	bare	20	generic	NA	silver	NA	stripes	35	frams
47	1523	implied_prevalence	bare	21	some	NA	green	NA	shells	78	moxes
47	2459	implied_prevalence	bare	22	generic	NA	orange	NA	ears	28	kazzes
47	1442	implied_prevalence	bare	23	most	NA	green	NA	teeth	45	zoovs
47	1596	implied_prevalence	bare	24	most	NA	copper	NA	stripes	36	mooks
47	1528	implied_prevalence	bare	25	some	NA	purple	NA	feathers	25	lorches
47	1954	implied_prevalence	bare	26	generic	NA	pink	NA	legs	78	feps
47	2176	implied_prevalence	bare	27	some	NA	red	NA	scales	12	blins
47	1760	implied_prevalence	bare	28	most	NA	gold	NA	feathers	36	plovs
47	1845	implied_prevalence	bare	29	most	NA	blue	NA	scales	55	reesles
48	6125	truth_conditions	bare	NA	some	0	silver	10	stripes	True	frams
48	4660	truth_conditions	bare	NA	some	1	green	50	tails	True	trufts
48	4124	truth_conditions	bare	NA	most	2	pink	30	ears	False	elleps
48	3823	truth_conditions	bare	NA	generic	3	gold	70	stripes	False	daiths
48	6373	truth_conditions	bare	NA	some	4	yellow	50	scales	True	dorbs
48	5440	truth_conditions	bare	NA	most	5	silver	10	legs	False	ackles
48	2769	truth_conditions	bare	NA	some	6	gold	90	spots	True	stups
48	3875	truth_conditions	bare	NA	some	7	blue	30	teeth	True	thups
48	7936	truth_conditions	bare	NA	generic	8	red	70	scales	False	blins
