"","workerid","rt","trial_type","stim_type","trial_num","stim_determiner","trialNum","stim_color","stim_prevalence","stim_part","response","stim_category"
"1",0,31624,"implied_prevalence","danger-distinct",3,"some",NA,"yellow",NA,"legs",30,"ludinos"
"2",0,6678,"implied_prevalence","danger-distinct",6,"some",NA,"green",NA,"shells",30,"moxes"
"3",0,7863,"implied_prevalence","danger-distinct",7,"some",NA,"blue",NA,"ears",30,"cheebas"
"4",0,9384,"implied_prevalence","danger-distinct",8,"some",NA,"copper",NA,"spots",30,"glippets"
"5",0,8080,"implied_prevalence","danger-distinct",14,"some",NA,"silver",NA,"fur",30,"morseths"
"6",0,3598,"implied_prevalence","danger-distinct",17,"some",NA,"red",NA,"scales",30,"blins"
"7",0,7182,"implied_prevalence","danger-distinct",18,"some",NA,"orange",NA,"tails",30,"zorbs"
"8",0,6784,"implied_prevalence","danger-distinct",20,"some",NA,"gold",NA,"stripes",30,"daiths"
"9",0,6958,"implied_prevalence","danger-distinct",25,"some",NA,"pink",NA,"teeth",30,"krivels"
"10",0,6851,"implied_prevalence","danger-distinct",28,"some",NA,"purple",NA,"feathers",30,"lorches"
"11",2,8031,"implied_prevalence","danger-distinct",5,"generic",NA,"silver",NA,"fur",100,"morseths"
"12",2,3743,"implied_prevalence","danger-distinct",7,"generic",NA,"blue",NA,"ears",100,"cheebas"
"13",2,6735,"implied_prevalence","danger-distinct",12,"generic",NA,"green",NA,"shells",100,"moxes"
"14",2,7365,"implied_prevalence","danger-distinct",13,"generic",NA,"gold",NA,"stripes",100,"daiths"
"15",2,3600,"implied_prevalence","danger-distinct",15,"generic",NA,"purple",NA,"feathers",100,"lorches"
"16",2,4158,"implied_prevalence","danger-distinct",18,"generic",NA,"orange",NA,"tails",100,"zorbs"
"17",2,2829,"implied_prevalence","danger-distinct",22,"generic",NA,"red",NA,"scales",100,"blins"
"18",2,2130,"implied_prevalence","danger-distinct",26,"generic",NA,"pink",NA,"teeth",100,"krivels"
"19",2,2422,"implied_prevalence","danger-distinct",27,"generic",NA,"yellow",NA,"legs",100,"ludinos"
"20",2,2265,"implied_prevalence","danger-distinct",28,"generic",NA,"copper",NA,"spots",100,"glippets"
"21",3,23458,"implied_prevalence","danger-distinct",4,"generic",NA,"blue",NA,"ears",90,"cheebas"
"22",3,19454,"implied_prevalence","danger-distinct",5,"generic",NA,"purple",NA,"feathers",90,"lorches"
"23",3,8062,"implied_prevalence","danger-distinct",7,"generic",NA,"red",NA,"scales",95,"blins"
"24",3,5569,"implied_prevalence","danger-distinct",11,"generic",NA,"silver",NA,"fur",95,"morseths"
"25",3,5415,"implied_prevalence","danger-distinct",14,"generic",NA,"orange",NA,"tails",95,"zorbs"
"26",3,5560,"implied_prevalence","danger-distinct",16,"generic",NA,"green",NA,"shells",95,"moxes"
"27",3,5214,"implied_prevalence","danger-distinct",18,"generic",NA,"copper",NA,"spots",95,"glippets"
"28",3,5660,"implied_prevalence","danger-distinct",24,"generic",NA,"pink",NA,"teeth",95,"krivels"
"29",3,4402,"implied_prevalence","danger-distinct",28,"generic",NA,"yellow",NA,"legs",95,"ludinos"
"30",3,5862,"implied_prevalence","danger-distinct",29,"generic",NA,"gold",NA,"stripes",95,"daiths"
"31",4,16321,"implied_prevalence","danger-distinct",0,"generic",NA,"silver",NA,"fur",100,"morseths"
"32",4,9086,"implied_prevalence","danger-distinct",1,"generic",NA,"orange",NA,"tails",100,"zorbs"
"33",4,11250,"implied_prevalence","danger-distinct",2,"generic",NA,"purple",NA,"feathers",100,"lorches"
"34",4,17356,"implied_prevalence","danger-distinct",7,"generic",NA,"copper",NA,"spots",100,"glippets"
"35",4,23995,"implied_prevalence","danger-distinct",8,"generic",NA,"green",NA,"shells",100,"moxes"
"36",4,4966,"implied_prevalence","danger-distinct",13,"generic",NA,"red",NA,"scales",100,"blins"
"37",4,7660,"implied_prevalence","danger-distinct",16,"generic",NA,"gold",NA,"stripes",100,"daiths"
"38",4,5931,"implied_prevalence","danger-distinct",19,"generic",NA,"yellow",NA,"legs",100,"ludinos"
"39",4,6280,"implied_prevalence","danger-distinct",20,"generic",NA,"pink",NA,"teeth",100,"krivels"
"40",4,7585,"implied_prevalence","danger-distinct",21,"generic",NA,"blue",NA,"ears",100,"cheebas"
"41",7,18053,"implied_prevalence","danger-distinct",0,"most",NA,"red",NA,"scales",51,"blins"
"42",7,21625,"implied_prevalence","danger-distinct",4,"most",NA,"copper",NA,"spots",60,"glippets"
"43",7,15053,"implied_prevalence","danger-distinct",9,"most",NA,"pink",NA,"teeth",65,"krivels"
"44",7,15836,"implied_prevalence","danger-distinct",12,"most",NA,"green",NA,"shells",60,"moxes"
"45",7,17988,"implied_prevalence","danger-distinct",14,"most",NA,"purple",NA,"feathers",70,"lorches"
"46",7,11446,"implied_prevalence","danger-distinct",17,"most",NA,"gold",NA,"stripes",90,"daiths"
"47",7,9208,"implied_prevalence","danger-distinct",22,"most",NA,"yellow",NA,"legs",75,"ludinos"
"48",7,8202,"implied_prevalence","danger-distinct",25,"most",NA,"silver",NA,"fur",70,"morseths"
"49",7,9909,"implied_prevalence","danger-distinct",27,"most",NA,"blue",NA,"ears",76,"cheebas"
"50",7,7395,"implied_prevalence","danger-distinct",28,"most",NA,"orange",NA,"tails",76,"zorbs"
"51",9,1743,"implied_prevalence","danger-distinct",3,"most",NA,"red",NA,"scales",70,"blins"
"52",9,2057,"implied_prevalence","danger-distinct",4,"most",NA,"pink",NA,"teeth",55,"krivels"
"53",9,2751,"implied_prevalence","danger-distinct",6,"most",NA,"orange",NA,"tails",54,"zorbs"
"54",9,2159,"implied_prevalence","danger-distinct",8,"most",NA,"silver",NA,"fur",67,"morseths"
"55",9,1881,"implied_prevalence","danger-distinct",16,"most",NA,"purple",NA,"feathers",45,"lorches"
"56",9,1559,"implied_prevalence","danger-distinct",18,"most",NA,"green",NA,"shells",67,"moxes"
"57",9,1856,"implied_prevalence","danger-distinct",20,"most",NA,"gold",NA,"stripes",54,"daiths"
"58",9,2169,"implied_prevalence","danger-distinct",21,"most",NA,"copper",NA,"spots",34,"glippets"
"59",9,1963,"implied_prevalence","danger-distinct",22,"most",NA,"yellow",NA,"legs",34,"ludinos"
"60",9,2172,"implied_prevalence","danger-distinct",27,"most",NA,"blue",NA,"ears",98,"cheebas"
"61",14,14635,"implied_prevalence","danger-distinct",1,"most",NA,"silver",NA,"fur",95,"morseths"
"62",14,8901,"implied_prevalence","danger-distinct",2,"most",NA,"gold",NA,"stripes",99,"daiths"
"63",14,15085,"implied_prevalence","danger-distinct",4,"most",NA,"orange",NA,"tails",92,"zorbs"
"64",14,19084,"implied_prevalence","danger-distinct",6,"most",NA,"copper",NA,"spots",75,"glippets"
"65",14,14481,"implied_prevalence","danger-distinct",7,"most",NA,"yellow",NA,"legs",99,"ludinos"
"66",14,11914,"implied_prevalence","danger-distinct",14,"most",NA,"pink",NA,"teeth",96,"krivels"
"67",14,8257,"implied_prevalence","danger-distinct",19,"most",NA,"blue",NA,"ears",99,"cheebas"
"68",14,8464,"implied_prevalence","danger-distinct",25,"most",NA,"purple",NA,"feathers",90,"lorches"
"69",14,8122,"implied_prevalence","danger-distinct",26,"most",NA,"green",NA,"shells",99,"moxes"
"70",14,9444,"implied_prevalence","danger-distinct",28,"most",NA,"red",NA,"scales",92,"blins"
"71",16,6990,"implied_prevalence","danger-distinct",4,"generic",NA,"red",NA,"scales",100,"blins"
"72",16,5178,"implied_prevalence","danger-distinct",5,"generic",NA,"purple",NA,"feathers",100,"lorches"
"73",16,5176,"implied_prevalence","danger-distinct",6,"generic",NA,"orange",NA,"tails",100,"zorbs"
"74",16,5496,"implied_prevalence","danger-distinct",7,"generic",NA,"pink",NA,"teeth",100,"krivels"
"75",16,4942,"implied_prevalence","danger-distinct",15,"generic",NA,"silver",NA,"fur",100,"morseths"
"76",16,6314,"implied_prevalence","danger-distinct",16,"generic",NA,"copper",NA,"spots",100,"glippets"
"77",16,5028,"implied_prevalence","danger-distinct",23,"generic",NA,"yellow",NA,"legs",100,"ludinos"
"78",16,4786,"implied_prevalence","danger-distinct",26,"generic",NA,"gold",NA,"stripes",100,"daiths"
"79",16,4968,"implied_prevalence","danger-distinct",27,"generic",NA,"blue",NA,"ears",100,"cheebas"
"80",16,4864,"implied_prevalence","danger-distinct",28,"generic",NA,"green",NA,"shells",100,"moxes"
"81",18,4091,"implied_prevalence","danger-distinct",0,"generic",NA,"silver",NA,"fur",55,"morseths"
"82",18,3544,"implied_prevalence","danger-distinct",1,"generic",NA,"pink",NA,"teeth",55,"krivels"
"83",18,2599,"implied_prevalence","danger-distinct",8,"generic",NA,"green",NA,"shells",55,"moxes"
"84",18,2761,"implied_prevalence","danger-distinct",9,"generic",NA,"purple",NA,"feathers",55,"lorches"
"85",18,3823,"implied_prevalence","danger-distinct",11,"generic",NA,"copper",NA,"spots",55,"glippets"
"86",18,2510,"implied_prevalence","danger-distinct",17,"generic",NA,"yellow",NA,"legs",55,"ludinos"
"87",18,3758,"implied_prevalence","danger-distinct",18,"generic",NA,"orange",NA,"tails",69,"zorbs"
"88",18,4582,"implied_prevalence","danger-distinct",19,"generic",NA,"gold",NA,"stripes",55,"daiths"
"89",18,2496,"implied_prevalence","danger-distinct",20,"generic",NA,"blue",NA,"ears",54,"cheebas"
"90",18,2578,"implied_prevalence","danger-distinct",23,"generic",NA,"red",NA,"scales",60,"blins"
"91",22,12416,"implied_prevalence","danger-distinct",2,"some",NA,"pink",NA,"teeth",50,"krivels"
"92",22,9587,"implied_prevalence","danger-distinct",4,"some",NA,"orange",NA,"tails",65,"zorbs"
"93",22,12065,"implied_prevalence","danger-distinct",9,"some",NA,"gold",NA,"stripes",90,"daiths"
"94",22,14691,"implied_prevalence","danger-distinct",13,"some",NA,"blue",NA,"ears",79,"cheebas"
"95",22,13854,"implied_prevalence","danger-distinct",17,"some",NA,"silver",NA,"fur",45,"morseths"
"96",22,11685,"implied_prevalence","danger-distinct",20,"some",NA,"yellow",NA,"legs",55,"ludinos"
"97",22,8725,"implied_prevalence","danger-distinct",22,"some",NA,"red",NA,"scales",70,"blins"
"98",22,13780,"implied_prevalence","danger-distinct",23,"some",NA,"purple",NA,"feathers",80,"lorches"
"99",22,10794,"implied_prevalence","danger-distinct",24,"some",NA,"green",NA,"shells",45,"moxes"
"100",22,16376,"implied_prevalence","danger-distinct",28,"some",NA,"copper",NA,"spots",76,"glippets"
"101",24,7833,"implied_prevalence","danger-distinct",0,"generic",NA,"yellow",NA,"legs",100,"ludinos"
"102",24,6800,"implied_prevalence","danger-distinct",1,"generic",NA,"red",NA,"scales",75,"blins"
"103",24,9744,"implied_prevalence","danger-distinct",6,"generic",NA,"gold",NA,"stripes",15,"daiths"
"104",24,6541,"implied_prevalence","danger-distinct",12,"generic",NA,"orange",NA,"tails",70,"zorbs"
"105",24,4474,"implied_prevalence","danger-distinct",16,"generic",NA,"green",NA,"shells",60,"moxes"
"106",24,3132,"implied_prevalence","danger-distinct",18,"generic",NA,"blue",NA,"ears",100,"cheebas"
"107",24,2580,"implied_prevalence","danger-distinct",20,"generic",NA,"silver",NA,"fur",40,"morseths"
"108",24,2576,"implied_prevalence","danger-distinct",21,"generic",NA,"copper",NA,"spots",70,"glippets"
"109",24,3230,"implied_prevalence","danger-distinct",23,"generic",NA,"purple",NA,"feathers",100,"lorches"
"110",24,5449,"implied_prevalence","danger-distinct",29,"generic",NA,"pink",NA,"teeth",70,"krivels"
"111",25,2892,"implied_prevalence","danger-distinct",4,"some",NA,"blue",NA,"ears",11,"cheebas"
"112",25,3904,"implied_prevalence","danger-distinct",5,"some",NA,"red",NA,"scales",22,"blins"
"113",25,3679,"implied_prevalence","danger-distinct",6,"some",NA,"yellow",NA,"legs",11,"ludinos"
"114",25,3532,"implied_prevalence","danger-distinct",7,"some",NA,"copper",NA,"spots",15,"glippets"
"115",25,2768,"implied_prevalence","danger-distinct",10,"some",NA,"silver",NA,"fur",2,"morseths"
"116",25,2655,"implied_prevalence","danger-distinct",16,"some",NA,"pink",NA,"teeth",2,"krivels"
"117",25,1665,"implied_prevalence","danger-distinct",17,"some",NA,"orange",NA,"tails",5,"zorbs"
"118",25,2317,"implied_prevalence","danger-distinct",20,"some",NA,"green",NA,"shells",4,"moxes"
"119",25,1383,"implied_prevalence","danger-distinct",26,"some",NA,"gold",NA,"stripes",4,"daiths"
"120",25,2081,"implied_prevalence","danger-distinct",29,"some",NA,"purple",NA,"feathers",4,"lorches"
"121",26,6399,"implied_prevalence","danger-distinct",1,"most",NA,"yellow",NA,"legs",90,"ludinos"
"122",26,11735,"implied_prevalence","danger-distinct",3,"most",NA,"blue",NA,"ears",95,"cheebas"
"123",26,5154,"implied_prevalence","danger-distinct",4,"most",NA,"orange",NA,"tails",95,"zorbs"
"124",26,4171,"implied_prevalence","danger-distinct",5,"most",NA,"silver",NA,"fur",95,"morseths"
"125",26,3352,"implied_prevalence","danger-distinct",8,"most",NA,"purple",NA,"feathers",95,"lorches"
"126",26,5201,"implied_prevalence","danger-distinct",11,"most",NA,"pink",NA,"teeth",90,"krivels"
"127",26,4085,"implied_prevalence","danger-distinct",17,"most",NA,"gold",NA,"stripes",90,"daiths"
"128",26,3093,"implied_prevalence","danger-distinct",21,"most",NA,"copper",NA,"spots",95,"glippets"
"129",26,6907,"implied_prevalence","danger-distinct",23,"most",NA,"red",NA,"scales",90,"blins"
"130",26,10851,"implied_prevalence","danger-distinct",29,"most",NA,"green",NA,"shells",90,"moxes"
"131",27,14028,"implied_prevalence","danger-distinct",1,"generic",NA,"orange",NA,"tails",100,"zorbs"
"132",27,2474,"implied_prevalence","danger-distinct",2,"generic",NA,"blue",NA,"ears",100,"cheebas"
"133",27,2777,"implied_prevalence","danger-distinct",3,"generic",NA,"yellow",NA,"legs",100,"ludinos"
"134",27,2309,"implied_prevalence","danger-distinct",4,"generic",NA,"green",NA,"shells",100,"moxes"
"135",27,3419,"implied_prevalence","danger-distinct",10,"generic",NA,"red",NA,"scales",60,"blins"
"136",27,3442,"implied_prevalence","danger-distinct",13,"generic",NA,"silver",NA,"fur",50,"morseths"
"137",27,25925,"implied_prevalence","danger-distinct",14,"generic",NA,"purple",NA,"feathers",60,"lorches"
"138",27,3462,"implied_prevalence","danger-distinct",17,"generic",NA,"gold",NA,"stripes",10,"daiths"
"139",27,2750,"implied_prevalence","danger-distinct",24,"generic",NA,"copper",NA,"spots",20,"glippets"
"140",27,2812,"implied_prevalence","danger-distinct",27,"generic",NA,"pink",NA,"teeth",20,"krivels"
"141",29,7088,"implied_prevalence","danger-distinct",2,"most",NA,"green",NA,"shells",90,"moxes"
"142",29,6048,"implied_prevalence","danger-distinct",9,"most",NA,"blue",NA,"ears",90,"cheebas"
"143",29,4647,"implied_prevalence","danger-distinct",10,"most",NA,"copper",NA,"spots",90,"glippets"
"144",29,6161,"implied_prevalence","danger-distinct",11,"most",NA,"orange",NA,"tails",90,"zorbs"
"145",29,3016,"implied_prevalence","danger-distinct",14,"most",NA,"red",NA,"scales",90,"blins"
"146",29,3679,"implied_prevalence","danger-distinct",19,"most",NA,"silver",NA,"fur",90,"morseths"
"147",29,2784,"implied_prevalence","danger-distinct",23,"most",NA,"yellow",NA,"legs",90,"ludinos"
"148",29,2898,"implied_prevalence","danger-distinct",25,"most",NA,"gold",NA,"stripes",90,"daiths"
"149",29,3270,"implied_prevalence","danger-distinct",26,"most",NA,"purple",NA,"feathers",90,"lorches"
"150",29,4055,"implied_prevalence","danger-distinct",28,"most",NA,"pink",NA,"teeth",90,"krivels"
"151",32,16948,"implied_prevalence","danger-distinct",1,"most",NA,"orange",NA,"tails",75,"zorbs"
"152",32,8400,"implied_prevalence","danger-distinct",5,"most",NA,"red",NA,"scales",75,"blins"
"153",32,8556,"implied_prevalence","danger-distinct",6,"most",NA,"green",NA,"shells",75,"moxes"
"154",32,11733,"implied_prevalence","danger-distinct",10,"most",NA,"gold",NA,"stripes",75,"daiths"
"155",32,5438,"implied_prevalence","danger-distinct",15,"most",NA,"yellow",NA,"legs",75,"ludinos"
"156",32,4723,"implied_prevalence","danger-distinct",18,"most",NA,"purple",NA,"feathers",75,"lorches"
"157",32,4888,"implied_prevalence","danger-distinct",20,"most",NA,"silver",NA,"fur",75,"morseths"
"158",32,9248,"implied_prevalence","danger-distinct",22,"most",NA,"copper",NA,"spots",75,"glippets"
"159",32,8822,"implied_prevalence","danger-distinct",23,"most",NA,"blue",NA,"ears",75,"cheebas"
"160",32,4844,"implied_prevalence","danger-distinct",26,"most",NA,"pink",NA,"teeth",75,"krivels"
"161",33,9468,"implied_prevalence","danger-distinct",4,"most",NA,"gold",NA,"stripes",98,"daiths"
"162",33,8718,"implied_prevalence","danger-distinct",6,"most",NA,"copper",NA,"spots",96,"glippets"
"163",33,6421,"implied_prevalence","danger-distinct",7,"most",NA,"green",NA,"shells",99,"moxes"
"164",33,7944,"implied_prevalence","danger-distinct",10,"most",NA,"silver",NA,"fur",95,"morseths"
"165",33,9189,"implied_prevalence","danger-distinct",11,"most",NA,"blue",NA,"ears",98,"cheebas"
"166",33,6243,"implied_prevalence","danger-distinct",15,"most",NA,"pink",NA,"teeth",99,"krivels"
"167",33,7870,"implied_prevalence","danger-distinct",20,"most",NA,"red",NA,"scales",98,"blins"
"168",33,6272,"implied_prevalence","danger-distinct",25,"most",NA,"yellow",NA,"legs",91,"ludinos"
"169",33,11246,"implied_prevalence","danger-distinct",26,"most",NA,"purple",NA,"feathers",98,"lorches"
"170",33,6332,"implied_prevalence","danger-distinct",29,"most",NA,"orange",NA,"tails",95,"zorbs"
"171",34,5766,"implied_prevalence","danger-distinct",5,"some",NA,"gold",NA,"stripes",30,"daiths"
"172",34,2743,"implied_prevalence","danger-distinct",9,"some",NA,"red",NA,"scales",30,"blins"
"173",34,3736,"implied_prevalence","danger-distinct",10,"some",NA,"copper",NA,"spots",30,"glippets"
"174",34,2824,"implied_prevalence","danger-distinct",11,"some",NA,"silver",NA,"fur",30,"morseths"
"175",34,2392,"implied_prevalence","danger-distinct",12,"some",NA,"blue",NA,"ears",30,"cheebas"
"176",34,2759,"implied_prevalence","danger-distinct",13,"some",NA,"purple",NA,"feathers",30,"lorches"
"177",34,2855,"implied_prevalence","danger-distinct",17,"some",NA,"orange",NA,"tails",30,"zorbs"
"178",34,2352,"implied_prevalence","danger-distinct",20,"some",NA,"green",NA,"shells",30,"moxes"
"179",34,3197,"implied_prevalence","danger-distinct",25,"some",NA,"pink",NA,"teeth",30,"krivels"
"180",34,3169,"implied_prevalence","danger-distinct",27,"some",NA,"yellow",NA,"legs",30,"ludinos"
"181",35,18600,"implied_prevalence","danger-distinct",0,"generic",NA,"yellow",NA,"legs",10,"ludinos"
"182",35,17202,"implied_prevalence","danger-distinct",3,"generic",NA,"gold",NA,"stripes",4,"daiths"
"183",35,12329,"implied_prevalence","danger-distinct",4,"generic",NA,"orange",NA,"tails",5,"zorbs"
"184",35,5773,"implied_prevalence","danger-distinct",5,"generic",NA,"pink",NA,"teeth",1,"krivels"
"185",35,5108,"implied_prevalence","danger-distinct",10,"generic",NA,"blue",NA,"ears",2,"cheebas"
"186",35,13691,"implied_prevalence","danger-distinct",14,"generic",NA,"copper",NA,"spots",5,"glippets"
"187",35,5636,"implied_prevalence","danger-distinct",15,"generic",NA,"purple",NA,"feathers",10,"lorches"
"188",35,8847,"implied_prevalence","danger-distinct",17,"generic",NA,"red",NA,"scales",15,"blins"
"189",35,7710,"implied_prevalence","danger-distinct",18,"generic",NA,"green",NA,"shells",10,"moxes"
"190",35,14568,"implied_prevalence","danger-distinct",25,"generic",NA,"silver",NA,"fur",10,"morseths"
"191",37,25073,"implied_prevalence","danger-distinct",2,"most",NA,"silver",NA,"fur",100,"morseths"
"192",37,17972,"implied_prevalence","danger-distinct",8,"most",NA,"blue",NA,"ears",45,"cheebas"
"193",37,9899,"implied_prevalence","danger-distinct",12,"most",NA,"gold",NA,"stripes",56,"daiths"
"194",37,7566,"implied_prevalence","danger-distinct",13,"most",NA,"orange",NA,"tails",54,"zorbs"
"195",37,8313,"implied_prevalence","danger-distinct",16,"most",NA,"green",NA,"shells",67,"moxes"
"196",37,10973,"implied_prevalence","danger-distinct",19,"most",NA,"yellow",NA,"legs",67,"ludinos"
"197",37,8750,"implied_prevalence","danger-distinct",23,"most",NA,"red",NA,"scales",57,"blins"
"198",37,6053,"implied_prevalence","danger-distinct",25,"most",NA,"copper",NA,"spots",79,"glippets"
"199",37,5224,"implied_prevalence","danger-distinct",27,"most",NA,"purple",NA,"feathers",79,"lorches"
"200",37,27780,"implied_prevalence","danger-distinct",29,"most",NA,"pink",NA,"teeth",89,"krivels"
"201",41,8599,"implied_prevalence","danger-distinct",0,"generic",NA,"red",NA,"scales",100,"blins"
"202",41,4383,"implied_prevalence","danger-distinct",1,"generic",NA,"purple",NA,"feathers",100,"lorches"
"203",41,3527,"implied_prevalence","danger-distinct",5,"generic",NA,"yellow",NA,"legs",100,"ludinos"
"204",41,4120,"implied_prevalence","danger-distinct",7,"generic",NA,"copper",NA,"spots",100,"glippets"
"205",41,2815,"implied_prevalence","danger-distinct",10,"generic",NA,"silver",NA,"fur",100,"morseths"
"206",41,2472,"implied_prevalence","danger-distinct",12,"generic",NA,"green",NA,"shells",100,"moxes"
"207",41,2416,"implied_prevalence","danger-distinct",14,"generic",NA,"orange",NA,"tails",100,"zorbs"
"208",41,2439,"implied_prevalence","danger-distinct",15,"generic",NA,"gold",NA,"stripes",100,"daiths"
"209",41,2246,"implied_prevalence","danger-distinct",24,"generic",NA,"blue",NA,"ears",100,"cheebas"
"210",41,1936,"implied_prevalence","danger-distinct",26,"generic",NA,"pink",NA,"teeth",100,"krivels"
"211",44,12238,"implied_prevalence","danger-distinct",2,"some",NA,"yellow",NA,"legs",2,"ludinos"
"212",44,10887,"implied_prevalence","danger-distinct",3,"some",NA,"gold",NA,"stripes",40,"daiths"
"213",44,12572,"implied_prevalence","danger-distinct",4,"some",NA,"green",NA,"shells",20,"moxes"
"214",44,7939,"implied_prevalence","danger-distinct",5,"some",NA,"red",NA,"scales",5,"blins"
"215",44,11894,"implied_prevalence","danger-distinct",9,"some",NA,"silver",NA,"fur",5,"morseths"
"216",44,10626,"implied_prevalence","danger-distinct",10,"some",NA,"purple",NA,"feathers",2,"lorches"
"217",44,6502,"implied_prevalence","danger-distinct",13,"some",NA,"orange",NA,"tails",2,"zorbs"
"218",44,9158,"implied_prevalence","danger-distinct",14,"some",NA,"copper",NA,"spots",5,"glippets"
"219",44,9833,"implied_prevalence","danger-distinct",16,"some",NA,"pink",NA,"teeth",1,"krivels"
"220",44,8155,"implied_prevalence","danger-distinct",17,"some",NA,"blue",NA,"ears",1,"cheebas"
"221",46,4463,"implied_prevalence","danger-distinct",0,"some",NA,"gold",NA,"stripes",50,"daiths"
"222",46,2599,"implied_prevalence","danger-distinct",2,"some",NA,"blue",NA,"ears",45,"cheebas"
"223",46,1847,"implied_prevalence","danger-distinct",4,"some",NA,"yellow",NA,"legs",55,"ludinos"
"224",46,1919,"implied_prevalence","danger-distinct",8,"some",NA,"pink",NA,"teeth",34,"krivels"
"225",46,2744,"implied_prevalence","danger-distinct",13,"some",NA,"red",NA,"scales",87,"blins"
"226",46,1759,"implied_prevalence","danger-distinct",16,"some",NA,"copper",NA,"spots",67,"glippets"
"227",46,1984,"implied_prevalence","danger-distinct",19,"some",NA,"green",NA,"shells",50,"moxes"
"228",46,1920,"implied_prevalence","danger-distinct",22,"some",NA,"silver",NA,"fur",32,"morseths"
"229",46,1937,"implied_prevalence","danger-distinct",24,"some",NA,"purple",NA,"feathers",77,"lorches"
"230",46,3697,"implied_prevalence","danger-distinct",26,"some",NA,"orange",NA,"tails",28,"zorbs"
"231",51,9432,"implied_prevalence","danger-distinct",0,"generic",NA,"red",NA,"scales",30,"blins"
"232",51,6633,"implied_prevalence","danger-distinct",3,"generic",NA,"pink",NA,"teeth",80,"krivels"
"233",51,3816,"implied_prevalence","danger-distinct",6,"generic",NA,"gold",NA,"stripes",90,"daiths"
"234",51,3384,"implied_prevalence","danger-distinct",12,"generic",NA,"silver",NA,"fur",90,"morseths"
"235",51,4216,"implied_prevalence","danger-distinct",14,"generic",NA,"orange",NA,"tails",80,"zorbs"
"236",51,6087,"implied_prevalence","danger-distinct",19,"generic",NA,"purple",NA,"feathers",75,"lorches"
"237",51,4113,"implied_prevalence","danger-distinct",20,"generic",NA,"copper",NA,"spots",80,"glippets"
"238",51,5193,"implied_prevalence","danger-distinct",24,"generic",NA,"yellow",NA,"legs",65,"ludinos"
"239",51,2599,"implied_prevalence","danger-distinct",26,"generic",NA,"green",NA,"shells",90,"moxes"
"240",51,4537,"implied_prevalence","danger-distinct",29,"generic",NA,"blue",NA,"ears",80,"cheebas"
"241",53,12190,"implied_prevalence","danger-distinct",0,"generic",NA,"pink",NA,"teeth",100,"krivels"
"242",53,7929,"implied_prevalence","danger-distinct",1,"generic",NA,"yellow",NA,"legs",100,"ludinos"
"243",53,10910,"implied_prevalence","danger-distinct",2,"generic",NA,"blue",NA,"ears",100,"cheebas"
"244",53,8913,"implied_prevalence","danger-distinct",4,"generic",NA,"silver",NA,"fur",100,"morseths"
"245",53,5863,"implied_prevalence","danger-distinct",5,"generic",NA,"copper",NA,"spots",15,"glippets"
"246",53,7953,"implied_prevalence","danger-distinct",10,"generic",NA,"red",NA,"scales",100,"blins"
"247",53,5349,"implied_prevalence","danger-distinct",11,"generic",NA,"gold",NA,"stripes",100,"daiths"
"248",53,4094,"implied_prevalence","danger-distinct",12,"generic",NA,"orange",NA,"tails",100,"zorbs"
"249",53,6741,"implied_prevalence","danger-distinct",21,"generic",NA,"green",NA,"shells",100,"moxes"
"250",53,12317,"implied_prevalence","danger-distinct",29,"generic",NA,"purple",NA,"feathers",20,"lorches"
"251",57,12086,"implied_prevalence","danger-distinct",0,"some",NA,"orange",NA,"tails",20,"zorbs"
"252",57,6766,"implied_prevalence","danger-distinct",3,"some",NA,"yellow",NA,"legs",25,"ludinos"
"253",57,5112,"implied_prevalence","danger-distinct",5,"some",NA,"blue",NA,"ears",15,"cheebas"
"254",57,6070,"implied_prevalence","danger-distinct",8,"some",NA,"green",NA,"shells",10,"moxes"
"255",57,8102,"implied_prevalence","danger-distinct",9,"some",NA,"copper",NA,"spots",15,"glippets"
"256",57,5573,"implied_prevalence","danger-distinct",11,"some",NA,"gold",NA,"stripes",10,"daiths"
"257",57,5362,"implied_prevalence","danger-distinct",12,"some",NA,"pink",NA,"teeth",10,"krivels"
"258",57,4781,"implied_prevalence","danger-distinct",16,"some",NA,"silver",NA,"fur",10,"morseths"
"259",57,4598,"implied_prevalence","danger-distinct",19,"some",NA,"red",NA,"scales",10,"blins"
"260",57,5842,"implied_prevalence","danger-distinct",20,"some",NA,"purple",NA,"feathers",10,"lorches"
"261",60,5001,"implied_prevalence","danger-distinct",2,"generic",NA,"orange",NA,"tails",100,"zorbs"
"262",60,8399,"implied_prevalence","danger-distinct",9,"generic",NA,"silver",NA,"fur",100,"morseths"
"263",60,5985,"implied_prevalence","danger-distinct",10,"generic",NA,"red",NA,"scales",100,"blins"
"264",60,5754,"implied_prevalence","danger-distinct",14,"generic",NA,"gold",NA,"stripes",100,"daiths"
"265",60,1235,"implied_prevalence","danger-distinct",16,"generic",NA,"yellow",NA,"legs",100,"ludinos"
"266",60,1565,"implied_prevalence","danger-distinct",20,"generic",NA,"pink",NA,"teeth",100,"krivels"
"267",60,1169,"implied_prevalence","danger-distinct",22,"generic",NA,"purple",NA,"feathers",100,"lorches"
"268",60,3133,"implied_prevalence","danger-distinct",23,"generic",NA,"green",NA,"shells",100,"moxes"
"269",60,3034,"implied_prevalence","danger-distinct",27,"generic",NA,"copper",NA,"spots",100,"glippets"
"270",60,1229,"implied_prevalence","danger-distinct",29,"generic",NA,"blue",NA,"ears",100,"cheebas"
"271",62,11840,"implied_prevalence","danger-distinct",0,"generic",NA,"yellow",NA,"legs",100,"ludinos"
"272",62,6856,"implied_prevalence","danger-distinct",5,"generic",NA,"purple",NA,"feathers",100,"lorches"
"273",62,8768,"implied_prevalence","danger-distinct",7,"generic",NA,"orange",NA,"tails",100,"zorbs"
"274",62,5287,"implied_prevalence","danger-distinct",8,"generic",NA,"red",NA,"scales",100,"blins"
"275",62,9752,"implied_prevalence","danger-distinct",9,"generic",NA,"gold",NA,"stripes",100,"daiths"
"276",62,1176,"implied_prevalence","danger-distinct",13,"generic",NA,"copper",NA,"spots",100,"glippets"
"277",62,6156,"implied_prevalence","danger-distinct",17,"generic",NA,"blue",NA,"ears",100,"cheebas"
"278",62,2369,"implied_prevalence","danger-distinct",19,"generic",NA,"silver",NA,"fur",100,"morseths"
"279",62,1551,"implied_prevalence","danger-distinct",27,"generic",NA,"green",NA,"shells",100,"moxes"
"280",62,2511,"implied_prevalence","danger-distinct",29,"generic",NA,"pink",NA,"teeth",100,"krivels"
"281",63,7398,"implied_prevalence","danger-distinct",0,"most",NA,"red",NA,"scales",90,"blins"
"282",63,3895,"implied_prevalence","danger-distinct",2,"most",NA,"purple",NA,"feathers",90,"lorches"
"283",63,2362,"implied_prevalence","danger-distinct",8,"most",NA,"green",NA,"shells",90,"moxes"
"284",63,2075,"implied_prevalence","danger-distinct",11,"most",NA,"copper",NA,"spots",90,"glippets"
"285",63,3285,"implied_prevalence","danger-distinct",12,"most",NA,"yellow",NA,"legs",90,"ludinos"
"286",63,1049,"implied_prevalence","danger-distinct",15,"most",NA,"blue",NA,"ears",90,"cheebas"
"287",63,1001,"implied_prevalence","danger-distinct",18,"most",NA,"gold",NA,"stripes",90,"daiths"
"288",63,998,"implied_prevalence","danger-distinct",19,"most",NA,"silver",NA,"fur",90,"morseths"
"289",63,1171,"implied_prevalence","danger-distinct",21,"most",NA,"pink",NA,"teeth",90,"krivels"
"290",63,1235,"implied_prevalence","danger-distinct",27,"most",NA,"orange",NA,"tails",90,"zorbs"
"291",68,11878,"implied_prevalence","danger-distinct",1,"generic",NA,"purple",NA,"feathers",100,"lorches"
"292",68,9377,"implied_prevalence","danger-distinct",4,"generic",NA,"red",NA,"scales",100,"blins"
"293",68,24268,"implied_prevalence","danger-distinct",5,"generic",NA,"copper",NA,"spots",80,"glippets"
"294",68,8756,"implied_prevalence","danger-distinct",6,"generic",NA,"pink",NA,"teeth",100,"krivels"
"295",68,8915,"implied_prevalence","danger-distinct",10,"generic",NA,"yellow",NA,"legs",65,"ludinos"
"296",68,8229,"implied_prevalence","danger-distinct",15,"generic",NA,"green",NA,"shells",100,"moxes"
"297",68,6571,"implied_prevalence","danger-distinct",18,"generic",NA,"gold",NA,"stripes",75,"daiths"
"298",68,10775,"implied_prevalence","danger-distinct",19,"generic",NA,"silver",NA,"fur",100,"morseths"
"299",68,6068,"implied_prevalence","danger-distinct",23,"generic",NA,"orange",NA,"tails",70,"zorbs"
"300",68,8788,"implied_prevalence","danger-distinct",24,"generic",NA,"blue",NA,"ears",100,"cheebas"
"301",69,10921,"implied_prevalence","danger-distinct",0,"generic",NA,"green",NA,"shells",35,"moxes"
"302",69,5986,"implied_prevalence","danger-distinct",3,"generic",NA,"purple",NA,"feathers",40,"lorches"
"303",69,4269,"implied_prevalence","danger-distinct",6,"generic",NA,"orange",NA,"tails",30,"zorbs"
"304",69,3187,"implied_prevalence","danger-distinct",11,"generic",NA,"pink",NA,"teeth",55,"krivels"
"305",69,2540,"implied_prevalence","danger-distinct",12,"generic",NA,"yellow",NA,"legs",40,"ludinos"
"306",69,2507,"implied_prevalence","danger-distinct",14,"generic",NA,"gold",NA,"stripes",15,"daiths"
"307",69,2013,"implied_prevalence","danger-distinct",15,"generic",NA,"red",NA,"scales",35,"blins"
"308",69,2143,"implied_prevalence","danger-distinct",20,"generic",NA,"copper",NA,"spots",40,"glippets"
"309",69,1199,"implied_prevalence","danger-distinct",23,"generic",NA,"blue",NA,"ears",35,"cheebas"
"310",69,2444,"implied_prevalence","danger-distinct",24,"generic",NA,"silver",NA,"fur",25,"morseths"
"311",70,9903,"implied_prevalence","danger-distinct",1,"generic",NA,"silver",NA,"fur",100,"morseths"
"312",70,8537,"implied_prevalence","danger-distinct",8,"generic",NA,"pink",NA,"teeth",100,"krivels"
"313",70,7757,"implied_prevalence","danger-distinct",9,"generic",NA,"purple",NA,"feathers",100,"lorches"
"314",70,10106,"implied_prevalence","danger-distinct",10,"generic",NA,"yellow",NA,"legs",100,"ludinos"
"315",70,4889,"implied_prevalence","danger-distinct",12,"generic",NA,"gold",NA,"stripes",100,"daiths"
"316",70,5474,"implied_prevalence","danger-distinct",13,"generic",NA,"copper",NA,"spots",100,"glippets"
"317",70,5604,"implied_prevalence","danger-distinct",14,"generic",NA,"orange",NA,"tails",100,"zorbs"
"318",70,4079,"implied_prevalence","danger-distinct",17,"generic",NA,"red",NA,"scales",100,"blins"
"319",70,3543,"implied_prevalence","danger-distinct",19,"generic",NA,"green",NA,"shells",100,"moxes"
"320",70,4990,"implied_prevalence","danger-distinct",28,"generic",NA,"blue",NA,"ears",100,"cheebas"
"321",75,15760,"implied_prevalence","danger-distinct",7,"generic",NA,"copper",NA,"spots",100,"glippets"
"322",75,35553,"implied_prevalence","danger-distinct",9,"generic",NA,"orange",NA,"tails",100,"zorbs"
"323",75,7084,"implied_prevalence","danger-distinct",13,"generic",NA,"pink",NA,"teeth",100,"krivels"
"324",75,18431,"implied_prevalence","danger-distinct",19,"generic",NA,"silver",NA,"fur",100,"morseths"
"325",75,9432,"implied_prevalence","danger-distinct",20,"generic",NA,"red",NA,"scales",100,"blins"
"326",75,9940,"implied_prevalence","danger-distinct",22,"generic",NA,"green",NA,"shells",100,"moxes"
"327",75,10532,"implied_prevalence","danger-distinct",23,"generic",NA,"yellow",NA,"legs",100,"ludinos"
"328",75,8428,"implied_prevalence","danger-distinct",26,"generic",NA,"purple",NA,"feathers",100,"lorches"
"329",75,11033,"implied_prevalence","danger-distinct",28,"generic",NA,"blue",NA,"ears",100,"cheebas"
"330",75,16617,"implied_prevalence","danger-distinct",29,"generic",NA,"gold",NA,"stripes",100,"daiths"
"331",76,16095,"implied_prevalence","danger-distinct",1,"generic",NA,"green",NA,"shells",95,"moxes"
"332",76,19387,"implied_prevalence","danger-distinct",3,"generic",NA,"silver",NA,"fur",100,"morseths"
"333",76,15054,"implied_prevalence","danger-distinct",4,"generic",NA,"purple",NA,"feathers",90,"lorches"
"334",76,11348,"implied_prevalence","danger-distinct",9,"generic",NA,"yellow",NA,"legs",100,"ludinos"
"335",76,12667,"implied_prevalence","danger-distinct",13,"generic",NA,"pink",NA,"teeth",100,"krivels"
"336",76,12233,"implied_prevalence","danger-distinct",17,"generic",NA,"orange",NA,"tails",95,"zorbs"
"337",76,12168,"implied_prevalence","danger-distinct",19,"generic",NA,"blue",NA,"ears",100,"cheebas"
"338",76,14291,"implied_prevalence","danger-distinct",21,"generic",NA,"copper",NA,"spots",100,"glippets"
"339",76,11782,"implied_prevalence","danger-distinct",22,"generic",NA,"gold",NA,"stripes",100,"daiths"
"340",76,13017,"implied_prevalence","danger-distinct",25,"generic",NA,"red",NA,"scales",95,"blins"
"341",81,8494,"implied_prevalence","danger-distinct",1,"some",NA,"yellow",NA,"legs",30,"ludinos"
"342",81,9263,"implied_prevalence","danger-distinct",2,"some",NA,"purple",NA,"feathers",33,"lorches"
"343",81,8684,"implied_prevalence","danger-distinct",3,"some",NA,"gold",NA,"stripes",33,"daiths"
"344",81,8742,"implied_prevalence","danger-distinct",4,"some",NA,"copper",NA,"spots",33,"glippets"
"345",81,6432,"implied_prevalence","danger-distinct",19,"some",NA,"red",NA,"scales",33,"blins"
"346",81,5397,"implied_prevalence","danger-distinct",20,"some",NA,"blue",NA,"ears",33,"cheebas"
"347",81,2442,"implied_prevalence","danger-distinct",21,"some",NA,"pink",NA,"teeth",33,"krivels"
"348",81,2729,"implied_prevalence","danger-distinct",23,"some",NA,"orange",NA,"tails",33,"zorbs"
"349",81,4725,"implied_prevalence","danger-distinct",25,"some",NA,"silver",NA,"fur",33,"morseths"
"350",81,2652,"implied_prevalence","danger-distinct",26,"some",NA,"green",NA,"shells",33,"moxes"
"351",82,12250,"implied_prevalence","danger-distinct",0,"generic",NA,"green",NA,"shells",100,"moxes"
"352",82,6030,"implied_prevalence","danger-distinct",7,"generic",NA,"purple",NA,"feathers",100,"lorches"
"353",82,5180,"implied_prevalence","danger-distinct",14,"generic",NA,"yellow",NA,"legs",100,"ludinos"
"354",82,5776,"implied_prevalence","danger-distinct",15,"generic",NA,"copper",NA,"spots",100,"glippets"
"355",82,8529,"implied_prevalence","danger-distinct",22,"generic",NA,"pink",NA,"teeth",100,"krivels"
"356",82,4259,"implied_prevalence","danger-distinct",24,"generic",NA,"orange",NA,"tails",100,"zorbs"
"357",82,4139,"implied_prevalence","danger-distinct",25,"generic",NA,"blue",NA,"ears",100,"cheebas"
"358",82,3557,"implied_prevalence","danger-distinct",26,"generic",NA,"silver",NA,"fur",100,"morseths"
"359",82,7236,"implied_prevalence","danger-distinct",27,"generic",NA,"gold",NA,"stripes",100,"daiths"
"360",82,3773,"implied_prevalence","danger-distinct",29,"generic",NA,"red",NA,"scales",100,"blins"
"361",83,24007,"implied_prevalence","danger-distinct",0,"some",NA,"red",NA,"scales",5,"blins"
"362",83,13831,"implied_prevalence","danger-distinct",1,"some",NA,"orange",NA,"tails",50,"zorbs"
"363",83,7604,"implied_prevalence","danger-distinct",2,"some",NA,"copper",NA,"spots",50,"glippets"
"364",83,11860,"implied_prevalence","danger-distinct",11,"some",NA,"silver",NA,"fur",5,"morseths"
"365",83,4101,"implied_prevalence","danger-distinct",14,"some",NA,"purple",NA,"feathers",50,"lorches"
"366",83,2035,"implied_prevalence","danger-distinct",18,"some",NA,"green",NA,"shells",50,"moxes"
"367",83,2351,"implied_prevalence","danger-distinct",19,"some",NA,"pink",NA,"teeth",50,"krivels"
"368",83,3704,"implied_prevalence","danger-distinct",20,"some",NA,"gold",NA,"stripes",50,"daiths"
"369",83,6037,"implied_prevalence","danger-distinct",23,"some",NA,"blue",NA,"ears",50,"cheebas"
"370",83,2017,"implied_prevalence","danger-distinct",25,"some",NA,"yellow",NA,"legs",50,"ludinos"
"371",85,3482,"implied_prevalence","danger-distinct",4,"generic",NA,"silver",NA,"fur",100,"morseths"
"372",85,2749,"implied_prevalence","danger-distinct",5,"generic",NA,"orange",NA,"tails",100,"zorbs"
"373",85,3020,"implied_prevalence","danger-distinct",6,"generic",NA,"yellow",NA,"legs",100,"ludinos"
"374",85,3064,"implied_prevalence","danger-distinct",10,"generic",NA,"red",NA,"scales",100,"blins"
"375",85,2112,"implied_prevalence","danger-distinct",13,"generic",NA,"purple",NA,"feathers",100,"lorches"
"376",85,3554,"implied_prevalence","danger-distinct",15,"generic",NA,"copper",NA,"spots",100,"glippets"
"377",85,2305,"implied_prevalence","danger-distinct",17,"generic",NA,"gold",NA,"stripes",100,"daiths"
"378",85,2182,"implied_prevalence","danger-distinct",20,"generic",NA,"green",NA,"shells",100,"moxes"
"379",85,2184,"implied_prevalence","danger-distinct",24,"generic",NA,"blue",NA,"ears",100,"cheebas"
"380",85,3201,"implied_prevalence","danger-distinct",28,"generic",NA,"pink",NA,"teeth",100,"krivels"
"381",86,11735,"implied_prevalence","danger-distinct",2,"generic",NA,"pink",NA,"teeth",100,"krivels"
"382",86,17256,"implied_prevalence","danger-distinct",6,"generic",NA,"silver",NA,"fur",100,"morseths"
"383",86,11072,"implied_prevalence","danger-distinct",9,"generic",NA,"green",NA,"shells",100,"moxes"
"384",86,7402,"implied_prevalence","danger-distinct",11,"generic",NA,"purple",NA,"feathers",100,"lorches"
"385",86,10022,"implied_prevalence","danger-distinct",15,"generic",NA,"yellow",NA,"legs",100,"ludinos"
"386",86,8408,"implied_prevalence","danger-distinct",19,"generic",NA,"copper",NA,"spots",100,"glippets"
"387",86,4376,"implied_prevalence","danger-distinct",24,"generic",NA,"orange",NA,"tails",100,"zorbs"
"388",86,6558,"implied_prevalence","danger-distinct",26,"generic",NA,"blue",NA,"ears",100,"cheebas"
"389",86,7097,"implied_prevalence","danger-distinct",27,"generic",NA,"red",NA,"scales",100,"blins"
"390",86,6744,"implied_prevalence","danger-distinct",28,"generic",NA,"gold",NA,"stripes",100,"daiths"
"391",87,15695,"implied_prevalence","danger-distinct",0,"generic",NA,"gold",NA,"stripes",100,"daiths"
"392",87,5000,"implied_prevalence","danger-distinct",7,"generic",NA,"silver",NA,"fur",100,"morseths"
"393",87,2481,"implied_prevalence","danger-distinct",9,"generic",NA,"purple",NA,"feathers",100,"lorches"
"394",87,2087,"implied_prevalence","danger-distinct",10,"generic",NA,"red",NA,"scales",100,"blins"
"395",87,3256,"implied_prevalence","danger-distinct",15,"generic",NA,"green",NA,"shells",100,"moxes"
"396",87,3648,"implied_prevalence","danger-distinct",16,"generic",NA,"copper",NA,"spots",100,"glippets"
"397",87,2478,"implied_prevalence","danger-distinct",18,"generic",NA,"pink",NA,"teeth",100,"krivels"
"398",87,3096,"implied_prevalence","danger-distinct",22,"generic",NA,"orange",NA,"tails",100,"zorbs"
"399",87,2848,"implied_prevalence","danger-distinct",24,"generic",NA,"blue",NA,"ears",100,"cheebas"
"400",87,2490,"implied_prevalence","danger-distinct",25,"generic",NA,"yellow",NA,"legs",100,"ludinos"
"401",93,13860,"implied_prevalence","danger-distinct",0,"generic",NA,"blue",NA,"ears",20,"cheebas"
"402",93,6452,"implied_prevalence","danger-distinct",5,"generic",NA,"yellow",NA,"legs",30,"ludinos"
"403",93,11048,"implied_prevalence","danger-distinct",6,"generic",NA,"copper",NA,"spots",30,"glippets"
"404",93,8049,"implied_prevalence","danger-distinct",8,"generic",NA,"pink",NA,"teeth",50,"krivels"
"405",93,7246,"implied_prevalence","danger-distinct",9,"generic",NA,"green",NA,"shells",100,"moxes"
"406",93,5803,"implied_prevalence","danger-distinct",10,"generic",NA,"red",NA,"scales",50,"blins"
"407",93,5335,"implied_prevalence","danger-distinct",11,"generic",NA,"gold",NA,"stripes",15,"daiths"
"408",93,3416,"implied_prevalence","danger-distinct",19,"generic",NA,"silver",NA,"fur",100,"morseths"
"409",93,5230,"implied_prevalence","danger-distinct",25,"generic",NA,"purple",NA,"feathers",100,"lorches"
"410",93,3151,"implied_prevalence","danger-distinct",27,"generic",NA,"orange",NA,"tails",100,"zorbs"
"411",94,15319,"implied_prevalence","danger-distinct",2,"generic",NA,"purple",NA,"feathers",100,"lorches"
"412",94,8492,"implied_prevalence","danger-distinct",5,"generic",NA,"silver",NA,"fur",100,"morseths"
"413",94,7022,"implied_prevalence","danger-distinct",6,"generic",NA,"red",NA,"scales",100,"blins"
"414",94,9008,"implied_prevalence","danger-distinct",7,"generic",NA,"copper",NA,"spots",100,"glippets"
"415",94,7832,"implied_prevalence","danger-distinct",11,"generic",NA,"green",NA,"shells",100,"moxes"
"416",94,5503,"implied_prevalence","danger-distinct",14,"generic",NA,"orange",NA,"tails",100,"zorbs"
"417",94,4177,"implied_prevalence","danger-distinct",18,"generic",NA,"gold",NA,"stripes",100,"daiths"
"418",94,5094,"implied_prevalence","danger-distinct",20,"generic",NA,"yellow",NA,"legs",100,"ludinos"
"419",94,5697,"implied_prevalence","danger-distinct",21,"generic",NA,"blue",NA,"ears",100,"cheebas"
"420",94,4281,"implied_prevalence","danger-distinct",27,"generic",NA,"pink",NA,"teeth",100,"krivels"
"421",95,7678,"implied_prevalence","danger-distinct",2,"most",NA,"purple",NA,"feathers",80,"lorches"
"422",95,7312,"implied_prevalence","danger-distinct",3,"most",NA,"blue",NA,"ears",70,"cheebas"
"423",95,5873,"implied_prevalence","danger-distinct",4,"most",NA,"gold",NA,"stripes",70,"daiths"
"424",95,7675,"implied_prevalence","danger-distinct",7,"most",NA,"red",NA,"scales",78,"blins"
"425",95,6766,"implied_prevalence","danger-distinct",11,"most",NA,"yellow",NA,"legs",80,"ludinos"
"426",95,5448,"implied_prevalence","danger-distinct",13,"most",NA,"silver",NA,"fur",70,"morseths"
"427",95,6484,"implied_prevalence","danger-distinct",18,"most",NA,"pink",NA,"teeth",78,"krivels"
"428",95,6492,"implied_prevalence","danger-distinct",21,"most",NA,"green",NA,"shells",68,"moxes"
"429",95,6598,"implied_prevalence","danger-distinct",25,"most",NA,"copper",NA,"spots",65,"glippets"
"430",95,6929,"implied_prevalence","danger-distinct",28,"most",NA,"orange",NA,"tails",65,"zorbs"
"431",97,18341,"implied_prevalence","danger-distinct",3,"generic",NA,"blue",NA,"ears",75,"cheebas"
"432",97,10770,"implied_prevalence","danger-distinct",9,"generic",NA,"purple",NA,"feathers",99,"lorches"
"433",97,12614,"implied_prevalence","danger-distinct",10,"generic",NA,"orange",NA,"tails",99,"zorbs"
"434",97,7312,"implied_prevalence","danger-distinct",15,"generic",NA,"yellow",NA,"legs",99,"ludinos"
"435",97,8512,"implied_prevalence","danger-distinct",18,"generic",NA,"pink",NA,"teeth",98,"krivels"
"436",97,9975,"implied_prevalence","danger-distinct",21,"generic",NA,"gold",NA,"stripes",100,"daiths"
"437",97,6333,"implied_prevalence","danger-distinct",25,"generic",NA,"silver",NA,"fur",98,"morseths"
"438",97,5920,"implied_prevalence","danger-distinct",26,"generic",NA,"red",NA,"scales",100,"blins"
"439",97,7152,"implied_prevalence","danger-distinct",27,"generic",NA,"copper",NA,"spots",100,"glippets"
"440",97,9628,"implied_prevalence","danger-distinct",28,"generic",NA,"green",NA,"shells",99,"moxes"
"441",99,11902,"implied_prevalence","danger-distinct",2,"generic",NA,"red",NA,"scales",40,"blins"
"442",99,8336,"implied_prevalence","danger-distinct",3,"generic",NA,"purple",NA,"feathers",56,"lorches"
"443",99,6678,"implied_prevalence","danger-distinct",6,"generic",NA,"silver",NA,"fur",32,"morseths"
"444",99,5743,"implied_prevalence","danger-distinct",10,"generic",NA,"orange",NA,"tails",32,"zorbs"
"445",99,4646,"implied_prevalence","danger-distinct",11,"generic",NA,"copper",NA,"spots",23,"glippets"
"446",99,4233,"implied_prevalence","danger-distinct",12,"generic",NA,"green",NA,"shells",42,"moxes"
"447",99,4135,"implied_prevalence","danger-distinct",13,"generic",NA,"pink",NA,"teeth",24,"krivels"
"448",99,11008,"implied_prevalence","danger-distinct",17,"generic",NA,"blue",NA,"ears",9,"cheebas"
"449",99,5651,"implied_prevalence","danger-distinct",18,"generic",NA,"gold",NA,"stripes",7,"daiths"
"450",99,3781,"implied_prevalence","danger-distinct",28,"generic",NA,"yellow",NA,"legs",8,"ludinos"
"451",100,12913,"implied_prevalence","danger-distinct",0,"some",NA,"green",NA,"shells",5,"moxes"
"452",100,10108,"implied_prevalence","danger-distinct",1,"some",NA,"purple",NA,"feathers",6,"lorches"
"453",100,13976,"implied_prevalence","danger-distinct",2,"some",NA,"blue",NA,"ears",3,"cheebas"
"454",100,12217,"implied_prevalence","danger-distinct",5,"some",NA,"orange",NA,"tails",10,"zorbs"
"455",100,12872,"implied_prevalence","danger-distinct",12,"some",NA,"pink",NA,"teeth",5,"krivels"
"456",100,7092,"implied_prevalence","danger-distinct",13,"some",NA,"copper",NA,"spots",9,"glippets"
"457",100,3514,"implied_prevalence","danger-distinct",19,"some",NA,"red",NA,"scales",56,"blins"
"458",100,2825,"implied_prevalence","danger-distinct",23,"some",NA,"silver",NA,"fur",56,"morseths"
"459",100,1878,"implied_prevalence","danger-distinct",27,"some",NA,"gold",NA,"stripes",9,"daiths"
"460",100,4018,"implied_prevalence","danger-distinct",29,"some",NA,"yellow",NA,"legs",5,"ludinos"
"461",102,16403,"implied_prevalence","danger-distinct",1,"generic",NA,"blue",NA,"ears",100,"cheebas"
"462",102,10800,"implied_prevalence","danger-distinct",3,"generic",NA,"red",NA,"scales",100,"blins"
"463",102,14367,"implied_prevalence","danger-distinct",4,"generic",NA,"pink",NA,"teeth",100,"krivels"
"464",102,12499,"implied_prevalence","danger-distinct",9,"generic",NA,"copper",NA,"spots",100,"glippets"
"465",102,12903,"implied_prevalence","danger-distinct",10,"generic",NA,"gold",NA,"stripes",100,"daiths"
"466",102,24478,"implied_prevalence","danger-distinct",12,"generic",NA,"purple",NA,"feathers",95,"lorches"
"467",102,15736,"implied_prevalence","danger-distinct",13,"generic",NA,"yellow",NA,"legs",100,"ludinos"
"468",102,15116,"implied_prevalence","danger-distinct",23,"generic",NA,"orange",NA,"tails",100,"zorbs"
"469",102,15587,"implied_prevalence","danger-distinct",25,"generic",NA,"silver",NA,"fur",100,"morseths"
"470",102,12799,"implied_prevalence","danger-distinct",27,"generic",NA,"green",NA,"shells",100,"moxes"
"471",103,10271,"implied_prevalence","danger-distinct",1,"most",NA,"purple",NA,"feathers",95,"lorches"
"472",103,8991,"implied_prevalence","danger-distinct",2,"most",NA,"copper",NA,"spots",95,"glippets"
"473",103,7726,"implied_prevalence","danger-distinct",4,"most",NA,"gold",NA,"stripes",95,"daiths"
"474",103,6183,"implied_prevalence","danger-distinct",7,"most",NA,"yellow",NA,"legs",95,"ludinos"
"475",103,6991,"implied_prevalence","danger-distinct",9,"most",NA,"pink",NA,"teeth",95,"krivels"
"476",103,7128,"implied_prevalence","danger-distinct",10,"most",NA,"silver",NA,"fur",95,"morseths"
"477",103,8069,"implied_prevalence","danger-distinct",20,"most",NA,"blue",NA,"ears",95,"cheebas"
"478",103,6480,"implied_prevalence","danger-distinct",21,"most",NA,"orange",NA,"tails",95,"zorbs"
"479",103,5695,"implied_prevalence","danger-distinct",23,"most",NA,"green",NA,"shells",95,"moxes"
"480",103,5464,"implied_prevalence","danger-distinct",25,"most",NA,"red",NA,"scales",95,"blins"
"481",105,5119,"implied_prevalence","danger-distinct",3,"generic",NA,"copper",NA,"spots",100,"glippets"
"482",105,5424,"implied_prevalence","danger-distinct",6,"generic",NA,"green",NA,"shells",100,"moxes"
"483",105,4077,"implied_prevalence","danger-distinct",9,"generic",NA,"gold",NA,"stripes",100,"daiths"
"484",105,3047,"implied_prevalence","danger-distinct",11,"generic",NA,"silver",NA,"fur",100,"morseths"
"485",105,3011,"implied_prevalence","danger-distinct",13,"generic",NA,"pink",NA,"teeth",100,"krivels"
"486",105,2528,"implied_prevalence","danger-distinct",15,"generic",NA,"red",NA,"scales",100,"blins"
"487",105,4488,"implied_prevalence","danger-distinct",16,"generic",NA,"yellow",NA,"legs",100,"ludinos"
"488",105,3680,"implied_prevalence","danger-distinct",17,"generic",NA,"purple",NA,"feathers",100,"lorches"
"489",105,2712,"implied_prevalence","danger-distinct",18,"generic",NA,"blue",NA,"ears",100,"cheebas"
"490",105,3247,"implied_prevalence","danger-distinct",27,"generic",NA,"orange",NA,"tails",100,"zorbs"
"491",107,14586,"implied_prevalence","danger-distinct",1,"some",NA,"orange",NA,"tails",60,"zorbs"
"492",107,10845,"implied_prevalence","danger-distinct",2,"some",NA,"purple",NA,"feathers",40,"lorches"
"493",107,9412,"implied_prevalence","danger-distinct",4,"some",NA,"copper",NA,"spots",50,"glippets"
"494",107,6669,"implied_prevalence","danger-distinct",7,"some",NA,"green",NA,"shells",45,"moxes"
"495",107,3265,"implied_prevalence","danger-distinct",10,"some",NA,"blue",NA,"ears",40,"cheebas"
"496",107,6565,"implied_prevalence","danger-distinct",17,"some",NA,"red",NA,"scales",65,"blins"
"497",107,4582,"implied_prevalence","danger-distinct",18,"some",NA,"pink",NA,"teeth",35,"krivels"
"498",107,5282,"implied_prevalence","danger-distinct",19,"some",NA,"yellow",NA,"legs",20,"ludinos"
"499",107,3285,"implied_prevalence","danger-distinct",22,"some",NA,"silver",NA,"fur",60,"morseths"
"500",107,4699,"implied_prevalence","danger-distinct",27,"some",NA,"gold",NA,"stripes",50,"daiths"
"501",108,10712,"implied_prevalence","danger-distinct",0,"most",NA,"pink",NA,"teeth",50,"krivels"
"502",108,4480,"implied_prevalence","danger-distinct",4,"most",NA,"red",NA,"scales",20,"blins"
"503",108,11757,"implied_prevalence","danger-distinct",7,"most",NA,"yellow",NA,"legs",20,"ludinos"
"504",108,8330,"implied_prevalence","danger-distinct",8,"most",NA,"orange",NA,"tails",20,"zorbs"
"505",108,3855,"implied_prevalence","danger-distinct",14,"most",NA,"copper",NA,"spots",30,"glippets"
"506",108,9655,"implied_prevalence","danger-distinct",17,"most",NA,"purple",NA,"feathers",25,"lorches"
"507",108,3800,"implied_prevalence","danger-distinct",21,"most",NA,"green",NA,"shells",47,"moxes"
"508",108,2045,"implied_prevalence","danger-distinct",22,"most",NA,"blue",NA,"ears",65,"cheebas"
"509",108,1795,"implied_prevalence","danger-distinct",23,"most",NA,"silver",NA,"fur",45,"morseths"
"510",108,2540,"implied_prevalence","danger-distinct",28,"most",NA,"gold",NA,"stripes",56,"daiths"
"511",109,10559,"implied_prevalence","danger-distinct",0,"some",NA,"copper",NA,"spots",50,"glippets"
"512",109,10007,"implied_prevalence","danger-distinct",1,"some",NA,"yellow",NA,"legs",25,"ludinos"
"513",109,1160,"implied_prevalence","danger-distinct",4,"some",NA,"pink",NA,"teeth",30,"krivels"
"514",109,912,"implied_prevalence","danger-distinct",5,"some",NA,"blue",NA,"ears",25,"cheebas"
"515",109,1103,"implied_prevalence","danger-distinct",10,"some",NA,"orange",NA,"tails",30,"zorbs"
"516",109,1496,"implied_prevalence","danger-distinct",12,"some",NA,"purple",NA,"feathers",30,"lorches"
"517",109,919,"implied_prevalence","danger-distinct",17,"some",NA,"gold",NA,"stripes",20,"daiths"
"518",109,1360,"implied_prevalence","danger-distinct",23,"some",NA,"silver",NA,"fur",20,"morseths"
"519",109,1215,"implied_prevalence","danger-distinct",24,"some",NA,"red",NA,"scales",30,"blins"
"520",109,1256,"implied_prevalence","danger-distinct",27,"some",NA,"green",NA,"shells",25,"moxes"
"521",110,9021,"implied_prevalence","danger-distinct",0,"generic",NA,"gold",NA,"stripes",100,"daiths"
"522",110,7741,"implied_prevalence","danger-distinct",3,"generic",NA,"pink",NA,"teeth",100,"krivels"
"523",110,10325,"implied_prevalence","danger-distinct",5,"generic",NA,"copper",NA,"spots",100,"glippets"
"524",110,8317,"implied_prevalence","danger-distinct",10,"generic",NA,"purple",NA,"feathers",100,"lorches"
"525",110,7356,"implied_prevalence","danger-distinct",11,"generic",NA,"blue",NA,"ears",100,"cheebas"
"526",110,8375,"implied_prevalence","danger-distinct",12,"generic",NA,"red",NA,"scales",100,"blins"
"527",110,7870,"implied_prevalence","danger-distinct",16,"generic",NA,"orange",NA,"tails",100,"zorbs"
"528",110,7168,"implied_prevalence","danger-distinct",17,"generic",NA,"yellow",NA,"legs",100,"ludinos"
"529",110,6161,"implied_prevalence","danger-distinct",19,"generic",NA,"green",NA,"shells",100,"moxes"
"530",110,6627,"implied_prevalence","danger-distinct",20,"generic",NA,"silver",NA,"fur",100,"morseths"
"531",114,22042,"implied_prevalence","danger-distinct",0,"most",NA,"copper",NA,"spots",95,"glippets"
"532",114,12712,"implied_prevalence","danger-distinct",2,"most",NA,"blue",NA,"ears",75,"cheebas"
"533",114,9419,"implied_prevalence","danger-distinct",4,"most",NA,"red",NA,"scales",99,"blins"
"534",114,9480,"implied_prevalence","danger-distinct",5,"most",NA,"purple",NA,"feathers",97,"lorches"
"535",114,10526,"implied_prevalence","danger-distinct",6,"most",NA,"yellow",NA,"legs",89,"ludinos"
"536",114,10312,"implied_prevalence","danger-distinct",7,"most",NA,"green",NA,"shells",99,"moxes"
"537",114,6706,"implied_prevalence","danger-distinct",12,"most",NA,"pink",NA,"teeth",99,"krivels"
"538",114,7777,"implied_prevalence","danger-distinct",18,"most",NA,"silver",NA,"fur",98,"morseths"
"539",114,5406,"implied_prevalence","danger-distinct",22,"most",NA,"gold",NA,"stripes",97,"daiths"
"540",114,8463,"implied_prevalence","danger-distinct",29,"most",NA,"orange",NA,"tails",98,"zorbs"
"541",118,21784,"implied_prevalence","danger-distinct",0,"generic",NA,"red",NA,"scales",100,"blins"
"542",118,2761,"implied_prevalence","danger-distinct",11,"generic",NA,"orange",NA,"tails",100,"zorbs"
"543",118,786,"implied_prevalence","danger-distinct",15,"generic",NA,"copper",NA,"spots",100,"glippets"
"544",118,968,"implied_prevalence","danger-distinct",16,"generic",NA,"purple",NA,"feathers",100,"lorches"
"545",118,1365,"implied_prevalence","danger-distinct",18,"generic",NA,"yellow",NA,"legs",100,"ludinos"
"546",118,889,"implied_prevalence","danger-distinct",20,"generic",NA,"green",NA,"shells",100,"moxes"
"547",118,769,"implied_prevalence","danger-distinct",22,"generic",NA,"silver",NA,"fur",100,"morseths"
"548",118,604,"implied_prevalence","danger-distinct",23,"generic",NA,"pink",NA,"teeth",100,"krivels"
"549",118,872,"implied_prevalence","danger-distinct",27,"generic",NA,"blue",NA,"ears",100,"cheebas"
"550",118,1214,"implied_prevalence","danger-distinct",29,"generic",NA,"gold",NA,"stripes",100,"daiths"
"551",121,13304,"implied_prevalence","danger-distinct",1,"some",NA,"orange",NA,"tails",50,"zorbs"
"552",121,11328,"implied_prevalence","danger-distinct",4,"some",NA,"gold",NA,"stripes",50,"daiths"
"553",121,7492,"implied_prevalence","danger-distinct",8,"some",NA,"pink",NA,"teeth",10,"krivels"
"554",121,10312,"implied_prevalence","danger-distinct",10,"some",NA,"copper",NA,"spots",10,"glippets"
"555",121,9537,"implied_prevalence","danger-distinct",14,"some",NA,"purple",NA,"feathers",10,"lorches"
"556",121,7169,"implied_prevalence","danger-distinct",15,"some",NA,"yellow",NA,"legs",15,"ludinos"
"557",121,8438,"implied_prevalence","danger-distinct",19,"some",NA,"green",NA,"shells",10,"moxes"
"558",121,6288,"implied_prevalence","danger-distinct",21,"some",NA,"red",NA,"scales",5,"blins"
"559",121,10778,"implied_prevalence","danger-distinct",24,"some",NA,"blue",NA,"ears",20,"cheebas"
"560",121,5600,"implied_prevalence","danger-distinct",27,"some",NA,"silver",NA,"fur",5,"morseths"
"561",125,8203,"implied_prevalence","danger-distinct",3,"some",NA,"red",NA,"scales",80,"blins"
"562",125,7467,"implied_prevalence","danger-distinct",5,"some",NA,"yellow",NA,"legs",90,"ludinos"
"563",125,7175,"implied_prevalence","danger-distinct",6,"some",NA,"orange",NA,"tails",90,"zorbs"
"564",125,7116,"implied_prevalence","danger-distinct",12,"some",NA,"purple",NA,"feathers",90,"lorches"
"565",125,6971,"implied_prevalence","danger-distinct",15,"some",NA,"green",NA,"shells",75,"moxes"
"566",125,6280,"implied_prevalence","danger-distinct",16,"some",NA,"silver",NA,"fur",80,"morseths"
"567",125,4814,"implied_prevalence","danger-distinct",20,"some",NA,"gold",NA,"stripes",90,"daiths"
"568",125,7458,"implied_prevalence","danger-distinct",22,"some",NA,"copper",NA,"spots",90,"glippets"
"569",125,5735,"implied_prevalence","danger-distinct",23,"some",NA,"pink",NA,"teeth",90,"krivels"
"570",125,5450,"implied_prevalence","danger-distinct",25,"some",NA,"blue",NA,"ears",90,"cheebas"
"571",128,14282,"implied_prevalence","danger-distinct",0,"generic",NA,"purple",NA,"feathers",30,"lorches"
"572",128,4205,"implied_prevalence","danger-distinct",4,"generic",NA,"yellow",NA,"legs",100,"ludinos"
"573",128,3645,"implied_prevalence","danger-distinct",5,"generic",NA,"orange",NA,"tails",100,"zorbs"
"574",128,3939,"implied_prevalence","danger-distinct",8,"generic",NA,"pink",NA,"teeth",100,"krivels"
"575",128,3514,"implied_prevalence","danger-distinct",10,"generic",NA,"blue",NA,"ears",100,"cheebas"
"576",128,4402,"implied_prevalence","danger-distinct",12,"generic",NA,"copper",NA,"spots",100,"glippets"
"577",128,6651,"implied_prevalence","danger-distinct",16,"generic",NA,"silver",NA,"fur",90,"morseths"
"578",128,4981,"implied_prevalence","danger-distinct",17,"generic",NA,"gold",NA,"stripes",100,"daiths"
"579",128,2925,"implied_prevalence","danger-distinct",24,"generic",NA,"green",NA,"shells",100,"moxes"
"580",128,5109,"implied_prevalence","danger-distinct",27,"generic",NA,"red",NA,"scales",100,"blins"
"581",129,14199,"implied_prevalence","danger-distinct",4,"some",NA,"silver",NA,"fur",20,"morseths"
"582",129,10163,"implied_prevalence","danger-distinct",6,"some",NA,"pink",NA,"teeth",80,"krivels"
"583",129,11786,"implied_prevalence","danger-distinct",9,"some",NA,"blue",NA,"ears",20,"cheebas"
"584",129,6940,"implied_prevalence","danger-distinct",10,"some",NA,"purple",NA,"feathers",25,"lorches"
"585",129,7156,"implied_prevalence","danger-distinct",11,"some",NA,"gold",NA,"stripes",10,"daiths"
"586",129,14452,"implied_prevalence","danger-distinct",16,"some",NA,"orange",NA,"tails",35,"zorbs"
"587",129,10424,"implied_prevalence","danger-distinct",17,"some",NA,"green",NA,"shells",65,"moxes"
"588",129,5404,"implied_prevalence","danger-distinct",25,"some",NA,"yellow",NA,"legs",10,"ludinos"
"589",129,11098,"implied_prevalence","danger-distinct",28,"some",NA,"red",NA,"scales",25,"blins"
"590",129,5133,"implied_prevalence","danger-distinct",29,"some",NA,"copper",NA,"spots",10,"glippets"
"591",133,5701,"implied_prevalence","danger-distinct",5,"some",NA,"purple",NA,"feathers",8,"lorches"
"592",133,6480,"implied_prevalence","danger-distinct",7,"some",NA,"red",NA,"scales",15,"blins"
"593",133,4696,"implied_prevalence","danger-distinct",9,"some",NA,"yellow",NA,"legs",20,"ludinos"
"594",133,3987,"implied_prevalence","danger-distinct",10,"some",NA,"silver",NA,"fur",40,"morseths"
"595",133,2398,"implied_prevalence","danger-distinct",16,"some",NA,"gold",NA,"stripes",40,"daiths"
"596",133,3018,"implied_prevalence","danger-distinct",18,"some",NA,"blue",NA,"ears",20,"cheebas"
"597",133,4507,"implied_prevalence","danger-distinct",19,"some",NA,"green",NA,"shells",30,"moxes"
"598",133,5489,"implied_prevalence","danger-distinct",20,"some",NA,"orange",NA,"tails",15,"zorbs"
"599",133,3301,"implied_prevalence","danger-distinct",23,"some",NA,"copper",NA,"spots",25,"glippets"
"600",133,2164,"implied_prevalence","danger-distinct",28,"some",NA,"pink",NA,"teeth",4,"krivels"
"601",135,13504,"implied_prevalence","danger-distinct",0,"some",NA,"copper",NA,"spots",15,"glippets"
"602",135,18906,"implied_prevalence","danger-distinct",6,"some",NA,"yellow",NA,"legs",18,"ludinos"
"603",135,13514,"implied_prevalence","danger-distinct",9,"some",NA,"silver",NA,"fur",10,"morseths"
"604",135,7576,"implied_prevalence","danger-distinct",14,"some",NA,"gold",NA,"stripes",8,"daiths"
"605",135,7176,"implied_prevalence","danger-distinct",15,"some",NA,"orange",NA,"tails",7,"zorbs"
"606",135,5601,"implied_prevalence","danger-distinct",18,"some",NA,"pink",NA,"teeth",15,"krivels"
"607",135,6970,"implied_prevalence","danger-distinct",19,"some",NA,"red",NA,"scales",9,"blins"
"608",135,13602,"implied_prevalence","danger-distinct",22,"some",NA,"green",NA,"shells",13,"moxes"
"609",135,5177,"implied_prevalence","danger-distinct",23,"some",NA,"blue",NA,"ears",15,"cheebas"
"610",135,3807,"implied_prevalence","danger-distinct",29,"some",NA,"purple",NA,"feathers",8,"lorches"
"611",138,13465,"implied_prevalence","danger-distinct",1,"generic",NA,"green",NA,"shells",100,"moxes"
"612",138,16933,"implied_prevalence","danger-distinct",3,"generic",NA,"silver",NA,"fur",100,"morseths"
"613",138,8842,"implied_prevalence","danger-distinct",5,"generic",NA,"copper",NA,"spots",100,"glippets"
"614",138,11212,"implied_prevalence","danger-distinct",17,"generic",NA,"yellow",NA,"legs",100,"ludinos"
"615",138,12000,"implied_prevalence","danger-distinct",19,"generic",NA,"blue",NA,"ears",100,"cheebas"
"616",138,11452,"implied_prevalence","danger-distinct",22,"generic",NA,"orange",NA,"tails",100,"zorbs"
"617",138,40004,"implied_prevalence","danger-distinct",24,"generic",NA,"gold",NA,"stripes",100,"daiths"
"618",138,11021,"implied_prevalence","danger-distinct",25,"generic",NA,"pink",NA,"teeth",100,"krivels"
"619",138,8613,"implied_prevalence","danger-distinct",28,"generic",NA,"red",NA,"scales",100,"blins"
"620",138,18687,"implied_prevalence","danger-distinct",29,"generic",NA,"purple",NA,"feathers",100,"lorches"
"621",139,9623,"implied_prevalence","danger-distinct",1,"most",NA,"purple",NA,"feathers",90,"lorches"
"622",139,7252,"implied_prevalence","danger-distinct",5,"most",NA,"pink",NA,"teeth",70,"krivels"
"623",139,7382,"implied_prevalence","danger-distinct",6,"most",NA,"orange",NA,"tails",80,"zorbs"
"624",139,5074,"implied_prevalence","danger-distinct",10,"most",NA,"green",NA,"shells",90,"moxes"
"625",139,5384,"implied_prevalence","danger-distinct",13,"most",NA,"yellow",NA,"legs",70,"ludinos"
"626",139,4582,"implied_prevalence","danger-distinct",14,"most",NA,"copper",NA,"spots",56,"glippets"
"627",139,4877,"implied_prevalence","danger-distinct",18,"most",NA,"blue",NA,"ears",60,"cheebas"
"628",139,5213,"implied_prevalence","danger-distinct",22,"most",NA,"red",NA,"scales",70,"blins"
"629",139,5004,"implied_prevalence","danger-distinct",23,"most",NA,"silver",NA,"fur",65,"morseths"
"630",139,4066,"implied_prevalence","danger-distinct",29,"most",NA,"gold",NA,"stripes",58,"daiths"
"631",0,23318,"implied_prevalence","nondistinctive",1,"some",NA,"red",NA,"spots",30,"sapers"
"632",0,7753,"implied_prevalence","nondistinctive",9,"some",NA,"gold",NA,"feathers",30,"plovs"
"633",0,6921,"implied_prevalence","nondistinctive",10,"some",NA,"blue",NA,"scales",30,"reesles"
"634",0,4512,"implied_prevalence","nondistinctive",12,"some",NA,"green",NA,"teeth",30,"zoovs"
"635",0,19037,"implied_prevalence","nondistinctive",15,"some",NA,"pink",NA,"ears",30,"elleps"
"636",0,3458,"implied_prevalence","nondistinctive",16,"some",NA,"silver",NA,"legs",30,"ackles"
"637",0,5409,"implied_prevalence","nondistinctive",19,"some",NA,"purple",NA,"tails",30,"taifels"
"638",0,9465,"implied_prevalence","nondistinctive",21,"some",NA,"copper",NA,"stripes",30,"mooks"
"639",0,6854,"implied_prevalence","nondistinctive",22,"some",NA,"orange",NA,"shells",30,"luzaks"
"640",0,6498,"implied_prevalence","nondistinctive",27,"some",NA,"yellow",NA,"fur",30,"ollers"
"641",2,18208,"implied_prevalence","nondistinctive",0,"generic",NA,"orange",NA,"shells",100,"luzaks"
"642",2,10479,"implied_prevalence","nondistinctive",1,"generic",NA,"blue",NA,"scales",100,"reesles"
"643",2,9053,"implied_prevalence","nondistinctive",2,"generic",NA,"red",NA,"spots",100,"sapers"
"644",2,9299,"implied_prevalence","nondistinctive",3,"generic",NA,"green",NA,"teeth",100,"zoovs"
"645",2,6337,"implied_prevalence","nondistinctive",6,"generic",NA,"copper",NA,"stripes",100,"mooks"
"646",2,3816,"implied_prevalence","nondistinctive",14,"generic",NA,"gold",NA,"feathers",100,"plovs"
"647",2,2840,"implied_prevalence","nondistinctive",21,"generic",NA,"pink",NA,"ears",100,"elleps"
"648",2,2779,"implied_prevalence","nondistinctive",23,"generic",NA,"purple",NA,"tails",100,"taifels"
"649",2,5873,"implied_prevalence","nondistinctive",24,"generic",NA,"yellow",NA,"fur",100,"ollers"
"650",2,3308,"implied_prevalence","nondistinctive",25,"generic",NA,"silver",NA,"legs",100,"ackles"
"651",3,11244,"implied_prevalence","nondistinctive",2,"generic",NA,"silver",NA,"legs",95,"ackles"
"652",3,8113,"implied_prevalence","nondistinctive",6,"generic",NA,"orange",NA,"shells",95,"luzaks"
"653",3,4836,"implied_prevalence","nondistinctive",10,"generic",NA,"blue",NA,"scales",95,"reesles"
"654",3,5331,"implied_prevalence","nondistinctive",12,"generic",NA,"yellow",NA,"fur",95,"ollers"
"655",3,4131,"implied_prevalence","nondistinctive",13,"generic",NA,"copper",NA,"stripes",95,"mooks"
"656",3,6573,"implied_prevalence","nondistinctive",19,"generic",NA,"pink",NA,"ears",95,"elleps"
"657",3,3727,"implied_prevalence","nondistinctive",21,"generic",NA,"gold",NA,"feathers",95,"plovs"
"658",3,4040,"implied_prevalence","nondistinctive",23,"generic",NA,"red",NA,"spots",95,"sapers"
"659",3,4942,"implied_prevalence","nondistinctive",26,"generic",NA,"green",NA,"teeth",95,"zoovs"
"660",3,6081,"implied_prevalence","nondistinctive",27,"generic",NA,"purple",NA,"tails",95,"taifels"
"661",4,10883,"implied_prevalence","nondistinctive",4,"generic",NA,"red",NA,"spots",100,"sapers"
"662",4,28770,"implied_prevalence","nondistinctive",6,"generic",NA,"yellow",NA,"fur",100,"ollers"
"663",4,6664,"implied_prevalence","nondistinctive",15,"generic",NA,"copper",NA,"stripes",100,"mooks"
"664",4,6513,"implied_prevalence","nondistinctive",17,"generic",NA,"orange",NA,"shells",95,"luzaks"
"665",4,4506,"implied_prevalence","nondistinctive",18,"generic",NA,"pink",NA,"ears",100,"elleps"
"666",4,5148,"implied_prevalence","nondistinctive",22,"generic",NA,"silver",NA,"legs",95,"ackles"
"667",4,5097,"implied_prevalence","nondistinctive",23,"generic",NA,"green",NA,"teeth",95,"zoovs"
"668",4,5365,"implied_prevalence","nondistinctive",25,"generic",NA,"gold",NA,"feathers",100,"plovs"
"669",4,4630,"implied_prevalence","nondistinctive",26,"generic",NA,"blue",NA,"scales",100,"reesles"
"670",4,21939,"implied_prevalence","nondistinctive",28,"generic",NA,"purple",NA,"tails",95,"taifels"
"671",7,29357,"implied_prevalence","nondistinctive",1,"most",NA,"blue",NA,"scales",34,"reesles"
"672",7,12869,"implied_prevalence","nondistinctive",5,"most",NA,"red",NA,"spots",80,"sapers"
"673",7,16214,"implied_prevalence","nondistinctive",7,"most",NA,"silver",NA,"legs",90,"ackles"
"674",7,33590,"implied_prevalence","nondistinctive",8,"most",NA,"orange",NA,"shells",60,"luzaks"
"675",7,13110,"implied_prevalence","nondistinctive",13,"most",NA,"pink",NA,"ears",51,"elleps"
"676",7,13380,"implied_prevalence","nondistinctive",15,"most",NA,"purple",NA,"tails",80,"taifels"
"677",7,24522,"implied_prevalence","nondistinctive",16,"most",NA,"green",NA,"teeth",60,"zoovs"
"678",7,18510,"implied_prevalence","nondistinctive",21,"most",NA,"yellow",NA,"fur",53,"ollers"
"679",7,6863,"implied_prevalence","nondistinctive",24,"most",NA,"copper",NA,"stripes",60,"mooks"
"680",7,6894,"implied_prevalence","nondistinctive",29,"most",NA,"gold",NA,"feathers",70,"plovs"
"681",9,2251,"implied_prevalence","nondistinctive",2,"most",NA,"green",NA,"teeth",50,"zoovs"
"682",9,2428,"implied_prevalence","nondistinctive",5,"most",NA,"pink",NA,"ears",49,"elleps"
"683",9,2647,"implied_prevalence","nondistinctive",7,"most",NA,"copper",NA,"stripes",87,"mooks"
"684",9,3393,"implied_prevalence","nondistinctive",9,"most",NA,"silver",NA,"legs",78,"ackles"
"685",9,2988,"implied_prevalence","nondistinctive",10,"most",NA,"blue",NA,"scales",67,"reesles"
"686",9,2823,"implied_prevalence","nondistinctive",11,"most",NA,"red",NA,"spots",98,"sapers"
"687",9,1839,"implied_prevalence","nondistinctive",15,"most",NA,"gold",NA,"feathers",34,"plovs"
"688",9,1533,"implied_prevalence","nondistinctive",17,"most",NA,"orange",NA,"shells",45,"luzaks"
"689",9,1519,"implied_prevalence","nondistinctive",19,"most",NA,"yellow",NA,"fur",65,"ollers"
"690",9,2242,"implied_prevalence","nondistinctive",26,"most",NA,"purple",NA,"tails",78,"taifels"
"691",14,9950,"implied_prevalence","nondistinctive",3,"most",NA,"purple",NA,"tails",98,"taifels"
"692",14,21348,"implied_prevalence","nondistinctive",5,"most",NA,"yellow",NA,"fur",85,"ollers"
"693",14,9920,"implied_prevalence","nondistinctive",9,"most",NA,"red",NA,"spots",90,"sapers"
"694",14,13960,"implied_prevalence","nondistinctive",11,"most",NA,"green",NA,"teeth",89,"zoovs"
"695",14,15898,"implied_prevalence","nondistinctive",15,"most",NA,"silver",NA,"legs",96,"ackles"
"696",14,7175,"implied_prevalence","nondistinctive",18,"most",NA,"blue",NA,"scales",98,"reesles"
"697",14,10453,"implied_prevalence","nondistinctive",20,"most",NA,"orange",NA,"shells",79,"luzaks"
"698",14,10065,"implied_prevalence","nondistinctive",21,"most",NA,"pink",NA,"ears",99,"elleps"
"699",14,7011,"implied_prevalence","nondistinctive",22,"most",NA,"gold",NA,"feathers",98,"plovs"
"700",14,8515,"implied_prevalence","nondistinctive",24,"most",NA,"copper",NA,"stripes",96,"mooks"
"701",16,6833,"implied_prevalence","nondistinctive",0,"generic",NA,"silver",NA,"legs",100,"ackles"
"702",16,6056,"implied_prevalence","nondistinctive",2,"generic",NA,"purple",NA,"tails",100,"taifels"
"703",16,30262,"implied_prevalence","nondistinctive",8,"generic",NA,"gold",NA,"feathers",100,"plovs"
"704",16,3962,"implied_prevalence","nondistinctive",11,"generic",NA,"green",NA,"teeth",100,"zoovs"
"705",16,4904,"implied_prevalence","nondistinctive",13,"generic",NA,"pink",NA,"ears",100,"elleps"
"706",16,6750,"implied_prevalence","nondistinctive",14,"generic",NA,"red",NA,"spots",100,"sapers"
"707",16,5426,"implied_prevalence","nondistinctive",19,"generic",NA,"yellow",NA,"fur",100,"ollers"
"708",16,10260,"implied_prevalence","nondistinctive",20,"generic",NA,"blue",NA,"scales",100,"reesles"
"709",16,7584,"implied_prevalence","nondistinctive",22,"generic",NA,"orange",NA,"shells",100,"luzaks"
"710",16,6157,"implied_prevalence","nondistinctive",25,"generic",NA,"copper",NA,"stripes",100,"mooks"
"711",18,12709,"implied_prevalence","nondistinctive",4,"generic",NA,"silver",NA,"legs",60,"ackles"
"712",18,2596,"implied_prevalence","nondistinctive",15,"generic",NA,"orange",NA,"shells",80,"luzaks"
"713",18,2939,"implied_prevalence","nondistinctive",16,"generic",NA,"purple",NA,"tails",80,"taifels"
"714",18,3205,"implied_prevalence","nondistinctive",21,"generic",NA,"red",NA,"spots",60,"sapers"
"715",18,2664,"implied_prevalence","nondistinctive",22,"generic",NA,"green",NA,"teeth",77,"zoovs"
"716",18,2816,"implied_prevalence","nondistinctive",24,"generic",NA,"pink",NA,"ears",90,"elleps"
"717",18,2656,"implied_prevalence","nondistinctive",25,"generic",NA,"blue",NA,"scales",80,"reesles"
"718",18,1980,"implied_prevalence","nondistinctive",27,"generic",NA,"yellow",NA,"fur",80,"ollers"
"719",18,1986,"implied_prevalence","nondistinctive",28,"generic",NA,"gold",NA,"feathers",80,"plovs"
"720",18,2011,"implied_prevalence","nondistinctive",29,"generic",NA,"copper",NA,"stripes",90,"mooks"
"721",22,10513,"implied_prevalence","nondistinctive",1,"some",NA,"red",NA,"spots",80,"sapers"
"722",22,15094,"implied_prevalence","nondistinctive",5,"some",NA,"copper",NA,"stripes",65,"mooks"
"723",22,13190,"implied_prevalence","nondistinctive",6,"some",NA,"pink",NA,"ears",35,"elleps"
"724",22,10691,"implied_prevalence","nondistinctive",10,"some",NA,"blue",NA,"scales",75,"reesles"
"725",22,11258,"implied_prevalence","nondistinctive",12,"some",NA,"gold",NA,"feathers",73,"plovs"
"726",22,9669,"implied_prevalence","nondistinctive",15,"some",NA,"green",NA,"teeth",60,"zoovs"
"727",22,13573,"implied_prevalence","nondistinctive",16,"some",NA,"purple",NA,"tails",59,"taifels"
"728",22,10303,"implied_prevalence","nondistinctive",19,"some",NA,"silver",NA,"legs",60,"ackles"
"729",22,8041,"implied_prevalence","nondistinctive",25,"some",NA,"orange",NA,"shells",45,"luzaks"
"730",22,9226,"implied_prevalence","nondistinctive",26,"some",NA,"yellow",NA,"fur",50,"ollers"
"731",24,8040,"implied_prevalence","nondistinctive",5,"generic",NA,"orange",NA,"shells",60,"luzaks"
"732",24,4788,"implied_prevalence","nondistinctive",8,"generic",NA,"red",NA,"spots",5,"sapers"
"733",24,5886,"implied_prevalence","nondistinctive",9,"generic",NA,"copper",NA,"stripes",12,"mooks"
"734",24,5757,"implied_prevalence","nondistinctive",10,"generic",NA,"pink",NA,"ears",30,"elleps"
"735",24,2948,"implied_prevalence","nondistinctive",15,"generic",NA,"purple",NA,"tails",80,"taifels"
"736",24,4470,"implied_prevalence","nondistinctive",17,"generic",NA,"silver",NA,"legs",30,"ackles"
"737",24,5412,"implied_prevalence","nondistinctive",19,"generic",NA,"gold",NA,"feathers",13,"plovs"
"738",24,4356,"implied_prevalence","nondistinctive",22,"generic",NA,"green",NA,"teeth",78,"zoovs"
"739",24,3788,"implied_prevalence","nondistinctive",24,"generic",NA,"yellow",NA,"fur",30,"ollers"
"740",24,3004,"implied_prevalence","nondistinctive",28,"generic",NA,"blue",NA,"scales",40,"reesles"
"741",25,4927,"implied_prevalence","nondistinctive",8,"some",NA,"green",NA,"teeth",8,"zoovs"
"742",25,3205,"implied_prevalence","nondistinctive",11,"some",NA,"copper",NA,"stripes",11,"mooks"
"743",25,2497,"implied_prevalence","nondistinctive",14,"some",NA,"silver",NA,"legs",7,"ackles"
"744",25,3645,"implied_prevalence","nondistinctive",15,"some",NA,"purple",NA,"tails",4,"taifels"
"745",25,1721,"implied_prevalence","nondistinctive",18,"some",NA,"blue",NA,"scales",4,"reesles"
"746",25,2014,"implied_prevalence","nondistinctive",21,"some",NA,"yellow",NA,"fur",4,"ollers"
"747",25,1293,"implied_prevalence","nondistinctive",22,"some",NA,"pink",NA,"ears",4,"elleps"
"748",25,1260,"implied_prevalence","nondistinctive",24,"some",NA,"orange",NA,"shells",4,"luzaks"
"749",25,1507,"implied_prevalence","nondistinctive",25,"some",NA,"red",NA,"spots",1,"sapers"
"750",25,1429,"implied_prevalence","nondistinctive",28,"some",NA,"gold",NA,"feathers",2,"plovs"
"751",26,11194,"implied_prevalence","nondistinctive",0,"most",NA,"copper",NA,"stripes",90,"mooks"
"752",26,3609,"implied_prevalence","nondistinctive",9,"most",NA,"red",NA,"spots",95,"sapers"
"753",26,3782,"implied_prevalence","nondistinctive",12,"most",NA,"gold",NA,"feathers",90,"plovs"
"754",26,7437,"implied_prevalence","nondistinctive",16,"most",NA,"green",NA,"teeth",95,"zoovs"
"755",26,4172,"implied_prevalence","nondistinctive",18,"most",NA,"blue",NA,"scales",95,"reesles"
"756",26,2312,"implied_prevalence","nondistinctive",19,"most",NA,"orange",NA,"shells",90,"luzaks"
"757",26,10415,"implied_prevalence","nondistinctive",20,"most",NA,"pink",NA,"ears",95,"elleps"
"758",26,3823,"implied_prevalence","nondistinctive",22,"most",NA,"silver",NA,"legs",90,"ackles"
"759",26,12655,"implied_prevalence","nondistinctive",25,"most",NA,"purple",NA,"tails",95,"taifels"
"760",26,4057,"implied_prevalence","nondistinctive",28,"most",NA,"yellow",NA,"fur",90,"ollers"
"761",27,6628,"implied_prevalence","nondistinctive",0,"generic",NA,"orange",NA,"shells",100,"luzaks"
"762",27,2558,"implied_prevalence","nondistinctive",5,"generic",NA,"pink",NA,"ears",50,"elleps"
"763",27,3073,"implied_prevalence","nondistinctive",7,"generic",NA,"blue",NA,"scales",100,"reesles"
"764",27,12658,"implied_prevalence","nondistinctive",8,"generic",NA,"red",NA,"spots",100,"sapers"
"765",27,4030,"implied_prevalence","nondistinctive",11,"generic",NA,"silver",NA,"legs",50,"ackles"
"766",27,2316,"implied_prevalence","nondistinctive",16,"generic",NA,"copper",NA,"stripes",50,"mooks"
"767",27,55469,"implied_prevalence","nondistinctive",20,"generic",NA,"purple",NA,"tails",50,"taifels"
"768",27,2899,"implied_prevalence","nondistinctive",22,"generic",NA,"gold",NA,"feathers",100,"plovs"
"769",27,2360,"implied_prevalence","nondistinctive",25,"generic",NA,"yellow",NA,"fur",100,"ollers"
"770",27,24808,"implied_prevalence","nondistinctive",26,"generic",NA,"green",NA,"teeth",100,"zoovs"
"771",29,15703,"implied_prevalence","nondistinctive",1,"most",NA,"green",NA,"teeth",90,"zoovs"
"772",29,4936,"implied_prevalence","nondistinctive",4,"most",NA,"gold",NA,"feathers",90,"plovs"
"773",29,6409,"implied_prevalence","nondistinctive",5,"most",NA,"blue",NA,"scales",90,"reesles"
"774",29,6647,"implied_prevalence","nondistinctive",6,"most",NA,"red",NA,"spots",90,"sapers"
"775",29,4512,"implied_prevalence","nondistinctive",16,"most",NA,"pink",NA,"ears",90,"elleps"
"776",29,3401,"implied_prevalence","nondistinctive",18,"most",NA,"yellow",NA,"fur",90,"ollers"
"777",29,3487,"implied_prevalence","nondistinctive",22,"most",NA,"purple",NA,"tails",90,"taifels"
"778",29,3103,"implied_prevalence","nondistinctive",24,"most",NA,"silver",NA,"legs",90,"ackles"
"779",29,2984,"implied_prevalence","nondistinctive",27,"most",NA,"copper",NA,"stripes",90,"mooks"
"780",29,3719,"implied_prevalence","nondistinctive",29,"most",NA,"orange",NA,"shells",90,"luzaks"
"781",32,14854,"implied_prevalence","nondistinctive",0,"most",NA,"gold",NA,"feathers",100,"plovs"
"782",32,11457,"implied_prevalence","nondistinctive",2,"most",NA,"yellow",NA,"fur",75,"ollers"
"783",32,11497,"implied_prevalence","nondistinctive",4,"most",NA,"red",NA,"spots",75,"sapers"
"784",32,10031,"implied_prevalence","nondistinctive",8,"most",NA,"blue",NA,"scales",75,"reesles"
"785",32,7113,"implied_prevalence","nondistinctive",12,"most",NA,"silver",NA,"legs",75,"ackles"
"786",32,5652,"implied_prevalence","nondistinctive",13,"most",NA,"purple",NA,"tails",75,"taifels"
"787",32,4961,"implied_prevalence","nondistinctive",14,"most",NA,"pink",NA,"ears",75,"elleps"
"788",32,4180,"implied_prevalence","nondistinctive",25,"most",NA,"orange",NA,"shells",75,"luzaks"
"789",32,6464,"implied_prevalence","nondistinctive",27,"most",NA,"copper",NA,"stripes",75,"mooks"
"790",32,4219,"implied_prevalence","nondistinctive",28,"most",NA,"green",NA,"teeth",75,"zoovs"
"791",33,12062,"implied_prevalence","nondistinctive",0,"most",NA,"copper",NA,"stripes",85,"mooks"
"792",33,9122,"implied_prevalence","nondistinctive",3,"most",NA,"blue",NA,"scales",96,"reesles"
"793",33,7657,"implied_prevalence","nondistinctive",5,"most",NA,"pink",NA,"ears",99,"elleps"
"794",33,8246,"implied_prevalence","nondistinctive",8,"most",NA,"green",NA,"teeth",98,"zoovs"
"795",33,9884,"implied_prevalence","nondistinctive",12,"most",NA,"silver",NA,"legs",94,"ackles"
"796",33,6639,"implied_prevalence","nondistinctive",14,"most",NA,"yellow",NA,"fur",97,"ollers"
"797",33,10666,"implied_prevalence","nondistinctive",17,"most",NA,"gold",NA,"feathers",95,"plovs"
"798",33,9032,"implied_prevalence","nondistinctive",19,"most",NA,"orange",NA,"shells",88,"luzaks"
"799",33,8537,"implied_prevalence","nondistinctive",24,"most",NA,"red",NA,"spots",88,"sapers"
"800",33,6975,"implied_prevalence","nondistinctive",27,"most",NA,"purple",NA,"tails",93,"taifels"
"801",34,6240,"implied_prevalence","nondistinctive",2,"some",NA,"green",NA,"teeth",30,"zoovs"
"802",34,4274,"implied_prevalence","nondistinctive",6,"some",NA,"pink",NA,"ears",30,"elleps"
"803",34,2630,"implied_prevalence","nondistinctive",7,"some",NA,"yellow",NA,"fur",30,"ollers"
"804",34,3361,"implied_prevalence","nondistinctive",14,"some",NA,"blue",NA,"scales",30,"reesles"
"805",34,2728,"implied_prevalence","nondistinctive",19,"some",NA,"red",NA,"spots",30,"sapers"
"806",34,3273,"implied_prevalence","nondistinctive",22,"some",NA,"copper",NA,"stripes",30,"mooks"
"807",34,2895,"implied_prevalence","nondistinctive",23,"some",NA,"silver",NA,"legs",30,"ackles"
"808",34,4655,"implied_prevalence","nondistinctive",24,"some",NA,"purple",NA,"tails",30,"taifels"
"809",34,5198,"implied_prevalence","nondistinctive",28,"some",NA,"orange",NA,"shells",30,"luzaks"
"810",34,2168,"implied_prevalence","nondistinctive",29,"some",NA,"gold",NA,"feathers",30,"plovs"
"811",35,5501,"implied_prevalence","nondistinctive",2,"generic",NA,"purple",NA,"tails",2,"taifels"
"812",35,10866,"implied_prevalence","nondistinctive",6,"generic",NA,"copper",NA,"stripes",10,"mooks"
"813",35,9900,"implied_prevalence","nondistinctive",8,"generic",NA,"silver",NA,"legs",1,"ackles"
"814",35,9776,"implied_prevalence","nondistinctive",9,"generic",NA,"blue",NA,"scales",10,"reesles"
"815",35,9900,"implied_prevalence","nondistinctive",12,"generic",NA,"pink",NA,"ears",10,"elleps"
"816",35,6300,"implied_prevalence","nondistinctive",13,"generic",NA,"orange",NA,"shells",5,"luzaks"
"817",35,5782,"implied_prevalence","nondistinctive",19,"generic",NA,"green",NA,"teeth",3,"zoovs"
"818",35,6603,"implied_prevalence","nondistinctive",22,"generic",NA,"red",NA,"spots",20,"sapers"
"819",35,8279,"implied_prevalence","nondistinctive",27,"generic",NA,"gold",NA,"feathers",1,"plovs"
"820",35,6614,"implied_prevalence","nondistinctive",29,"generic",NA,"yellow",NA,"fur",1,"ollers"
"821",37,14853,"implied_prevalence","nondistinctive",0,"most",NA,"red",NA,"spots",87,"sapers"
"822",37,7565,"implied_prevalence","nondistinctive",3,"most",NA,"pink",NA,"ears",78,"elleps"
"823",37,9959,"implied_prevalence","nondistinctive",6,"most",NA,"green",NA,"teeth",89,"zoovs"
"824",37,25101,"implied_prevalence","nondistinctive",9,"most",NA,"yellow",NA,"fur",78,"ollers"
"825",37,9295,"implied_prevalence","nondistinctive",14,"most",NA,"copper",NA,"stripes",98,"mooks"
"826",37,8120,"implied_prevalence","nondistinctive",15,"most",NA,"silver",NA,"legs",89,"ackles"
"827",37,14276,"implied_prevalence","nondistinctive",17,"most",NA,"orange",NA,"shells",34,"luzaks"
"828",37,14489,"implied_prevalence","nondistinctive",22,"most",NA,"purple",NA,"tails",45,"taifels"
"829",37,4659,"implied_prevalence","nondistinctive",24,"most",NA,"gold",NA,"feathers",89,"plovs"
"830",37,4894,"implied_prevalence","nondistinctive",26,"most",NA,"blue",NA,"scales",79,"reesles"
"831",41,4048,"implied_prevalence","nondistinctive",3,"generic",NA,"red",NA,"spots",100,"sapers"
"832",41,2584,"implied_prevalence","nondistinctive",6,"generic",NA,"orange",NA,"shells",100,"luzaks"
"833",41,2393,"implied_prevalence","nondistinctive",8,"generic",NA,"silver",NA,"legs",100,"ackles"
"834",41,2113,"implied_prevalence","nondistinctive",11,"generic",NA,"blue",NA,"scales",100,"reesles"
"835",41,3264,"implied_prevalence","nondistinctive",13,"generic",NA,"purple",NA,"tails",100,"taifels"
"836",41,2704,"implied_prevalence","nondistinctive",17,"generic",NA,"green",NA,"teeth",100,"zoovs"
"837",41,2720,"implied_prevalence","nondistinctive",19,"generic",NA,"yellow",NA,"fur",100,"ollers"
"838",41,2432,"implied_prevalence","nondistinctive",20,"generic",NA,"pink",NA,"ears",100,"elleps"
"839",41,2304,"implied_prevalence","nondistinctive",21,"generic",NA,"copper",NA,"stripes",100,"mooks"
"840",41,2176,"implied_prevalence","nondistinctive",29,"generic",NA,"gold",NA,"feathers",100,"plovs"
"841",44,73785,"implied_prevalence","nondistinctive",0,"some",NA,"yellow",NA,"fur",20,"ollers"
"842",44,13265,"implied_prevalence","nondistinctive",6,"some",NA,"silver",NA,"legs",10,"ackles"
"843",44,16569,"implied_prevalence","nondistinctive",7,"some",NA,"gold",NA,"feathers",70,"plovs"
"844",44,10987,"implied_prevalence","nondistinctive",18,"some",NA,"copper",NA,"stripes",40,"mooks"
"845",44,8441,"implied_prevalence","nondistinctive",20,"some",NA,"purple",NA,"tails",80,"taifels"
"846",44,7889,"implied_prevalence","nondistinctive",23,"some",NA,"orange",NA,"shells",80,"luzaks"
"847",44,8688,"implied_prevalence","nondistinctive",24,"some",NA,"red",NA,"spots",90,"sapers"
"848",44,8474,"implied_prevalence","nondistinctive",27,"some",NA,"blue",NA,"scales",70,"reesles"
"849",44,4639,"implied_prevalence","nondistinctive",28,"some",NA,"green",NA,"teeth",70,"zoovs"
"850",44,8773,"implied_prevalence","nondistinctive",29,"some",NA,"pink",NA,"ears",65,"elleps"
"851",46,2249,"implied_prevalence","nondistinctive",3,"some",NA,"gold",NA,"feathers",37,"plovs"
"852",46,3632,"implied_prevalence","nondistinctive",6,"some",NA,"pink",NA,"ears",27,"elleps"
"853",46,2489,"implied_prevalence","nondistinctive",7,"some",NA,"yellow",NA,"fur",70,"ollers"
"854",46,1528,"implied_prevalence","nondistinctive",10,"some",NA,"purple",NA,"tails",5,"taifels"
"855",46,1751,"implied_prevalence","nondistinctive",11,"some",NA,"red",NA,"spots",12,"sapers"
"856",46,1920,"implied_prevalence","nondistinctive",12,"some",NA,"copper",NA,"stripes",17,"mooks"
"857",46,3328,"implied_prevalence","nondistinctive",14,"some",NA,"orange",NA,"shells",57,"luzaks"
"858",46,2513,"implied_prevalence","nondistinctive",15,"some",NA,"blue",NA,"scales",32,"reesles"
"859",46,2191,"implied_prevalence","nondistinctive",17,"some",NA,"green",NA,"teeth",83,"zoovs"
"860",46,2160,"implied_prevalence","nondistinctive",20,"some",NA,"silver",NA,"legs",50,"ackles"
"861",51,4047,"implied_prevalence","nondistinctive",2,"generic",NA,"orange",NA,"shells",100,"luzaks"
"862",51,4584,"implied_prevalence","nondistinctive",4,"generic",NA,"blue",NA,"scales",70,"reesles"
"863",51,3471,"implied_prevalence","nondistinctive",5,"generic",NA,"copper",NA,"stripes",100,"mooks"
"864",51,4031,"implied_prevalence","nondistinctive",7,"generic",NA,"silver",NA,"legs",95,"ackles"
"865",51,3744,"implied_prevalence","nondistinctive",8,"generic",NA,"yellow",NA,"fur",100,"ollers"
"866",51,3736,"implied_prevalence","nondistinctive",10,"generic",NA,"gold",NA,"feathers",100,"plovs"
"867",51,2871,"implied_prevalence","nondistinctive",15,"generic",NA,"purple",NA,"tails",100,"taifels"
"868",51,3799,"implied_prevalence","nondistinctive",16,"generic",NA,"pink",NA,"ears",90,"elleps"
"869",51,5968,"implied_prevalence","nondistinctive",18,"generic",NA,"red",NA,"spots",70,"sapers"
"870",51,3439,"implied_prevalence","nondistinctive",27,"generic",NA,"green",NA,"teeth",85,"zoovs"
"871",53,4384,"implied_prevalence","nondistinctive",6,"generic",NA,"orange",NA,"shells",100,"luzaks"
"872",53,4966,"implied_prevalence","nondistinctive",8,"generic",NA,"purple",NA,"tails",100,"taifels"
"873",53,1569,"implied_prevalence","nondistinctive",9,"generic",NA,"blue",NA,"scales",100,"reesles"
"874",53,7043,"implied_prevalence","nondistinctive",16,"generic",NA,"gold",NA,"feathers",100,"plovs"
"875",53,5795,"implied_prevalence","nondistinctive",17,"generic",NA,"red",NA,"spots",100,"sapers"
"876",53,2413,"implied_prevalence","nondistinctive",18,"generic",NA,"pink",NA,"ears",100,"elleps"
"877",53,3472,"implied_prevalence","nondistinctive",20,"generic",NA,"copper",NA,"stripes",100,"mooks"
"878",53,4196,"implied_prevalence","nondistinctive",25,"generic",NA,"green",NA,"teeth",100,"zoovs"
"879",53,3155,"implied_prevalence","nondistinctive",26,"generic",NA,"silver",NA,"legs",100,"ackles"
"880",53,1740,"implied_prevalence","nondistinctive",27,"generic",NA,"yellow",NA,"fur",100,"ollers"
"881",57,7591,"implied_prevalence","nondistinctive",1,"some",NA,"purple",NA,"tails",0,"taifels"
"882",57,11033,"implied_prevalence","nondistinctive",2,"some",NA,"red",NA,"spots",10,"sapers"
"883",57,5395,"implied_prevalence","nondistinctive",4,"some",NA,"silver",NA,"legs",10,"ackles"
"884",57,3997,"implied_prevalence","nondistinctive",6,"some",NA,"copper",NA,"stripes",10,"mooks"
"885",57,6336,"implied_prevalence","nondistinctive",7,"some",NA,"blue",NA,"scales",10,"reesles"
"886",57,4576,"implied_prevalence","nondistinctive",14,"some",NA,"orange",NA,"shells",10,"luzaks"
"887",57,4905,"implied_prevalence","nondistinctive",18,"some",NA,"pink",NA,"ears",10,"elleps"
"888",57,5021,"implied_prevalence","nondistinctive",22,"some",NA,"green",NA,"teeth",5,"zoovs"
"889",57,3521,"implied_prevalence","nondistinctive",26,"some",NA,"gold",NA,"feathers",10,"plovs"
"890",57,3916,"implied_prevalence","nondistinctive",29,"some",NA,"yellow",NA,"fur",15,"ollers"
"891",60,16966,"implied_prevalence","nondistinctive",0,"generic",NA,"orange",NA,"shells",100,"luzaks"
"892",60,10845,"implied_prevalence","nondistinctive",1,"generic",NA,"copper",NA,"stripes",100,"mooks"
"893",60,8101,"implied_prevalence","nondistinctive",5,"generic",NA,"green",NA,"teeth",100,"zoovs"
"894",60,4797,"implied_prevalence","nondistinctive",6,"generic",NA,"blue",NA,"scales",100,"reesles"
"895",60,2450,"implied_prevalence","nondistinctive",7,"generic",NA,"pink",NA,"ears",100,"elleps"
"896",60,2202,"implied_prevalence","nondistinctive",8,"generic",NA,"purple",NA,"tails",100,"taifels"
"897",60,2747,"implied_prevalence","nondistinctive",15,"generic",NA,"gold",NA,"feathers",100,"plovs"
"898",60,2233,"implied_prevalence","nondistinctive",18,"generic",NA,"red",NA,"spots",100,"sapers"
"899",60,1518,"implied_prevalence","nondistinctive",24,"generic",NA,"yellow",NA,"fur",100,"ollers"
"900",60,1313,"implied_prevalence","nondistinctive",25,"generic",NA,"silver",NA,"legs",100,"ackles"
"901",62,7920,"implied_prevalence","nondistinctive",3,"generic",NA,"pink",NA,"ears",100,"elleps"
"902",62,2032,"implied_prevalence","nondistinctive",11,"generic",NA,"green",NA,"teeth",100,"zoovs"
"903",62,1656,"implied_prevalence","nondistinctive",12,"generic",NA,"yellow",NA,"fur",100,"ollers"
"904",62,1192,"implied_prevalence","nondistinctive",14,"generic",NA,"blue",NA,"scales",100,"reesles"
"905",62,1423,"implied_prevalence","nondistinctive",15,"generic",NA,"silver",NA,"legs",0,"ackles"
"906",62,1703,"implied_prevalence","nondistinctive",16,"generic",NA,"purple",NA,"tails",100,"taifels"
"907",62,6355,"implied_prevalence","nondistinctive",18,"generic",NA,"orange",NA,"shells",100,"luzaks"
"908",62,2111,"implied_prevalence","nondistinctive",25,"generic",NA,"gold",NA,"feathers",100,"plovs"
"909",62,1767,"implied_prevalence","nondistinctive",26,"generic",NA,"copper",NA,"stripes",100,"mooks"
"910",62,1583,"implied_prevalence","nondistinctive",28,"generic",NA,"red",NA,"spots",100,"sapers"
"911",63,3964,"implied_prevalence","nondistinctive",1,"most",NA,"pink",NA,"ears",90,"elleps"
"912",63,2298,"implied_prevalence","nondistinctive",3,"most",NA,"green",NA,"teeth",90,"zoovs"
"913",63,1966,"implied_prevalence","nondistinctive",4,"most",NA,"blue",NA,"scales",90,"reesles"
"914",63,2225,"implied_prevalence","nondistinctive",6,"most",NA,"orange",NA,"shells",90,"luzaks"
"915",63,1003,"implied_prevalence","nondistinctive",14,"most",NA,"copper",NA,"stripes",90,"mooks"
"916",63,1328,"implied_prevalence","nondistinctive",16,"most",NA,"yellow",NA,"fur",90,"ollers"
"917",63,933,"implied_prevalence","nondistinctive",17,"most",NA,"purple",NA,"tails",90,"taifels"
"918",63,1119,"implied_prevalence","nondistinctive",24,"most",NA,"silver",NA,"legs",90,"ackles"
"919",63,1207,"implied_prevalence","nondistinctive",26,"most",NA,"gold",NA,"feathers",90,"plovs"
"920",63,1197,"implied_prevalence","nondistinctive",28,"most",NA,"red",NA,"spots",90,"sapers"
"921",68,13484,"implied_prevalence","nondistinctive",3,"generic",NA,"copper",NA,"stripes",100,"mooks"
"922",68,6028,"implied_prevalence","nondistinctive",11,"generic",NA,"gold",NA,"feathers",70,"plovs"
"923",68,15141,"implied_prevalence","nondistinctive",12,"generic",NA,"purple",NA,"tails",80,"taifels"
"924",68,7793,"implied_prevalence","nondistinctive",13,"generic",NA,"orange",NA,"shells",100,"luzaks"
"925",68,7061,"implied_prevalence","nondistinctive",14,"generic",NA,"green",NA,"teeth",100,"zoovs"
"926",68,10264,"implied_prevalence","nondistinctive",21,"generic",NA,"yellow",NA,"fur",100,"ollers"
"927",68,4852,"implied_prevalence","nondistinctive",22,"generic",NA,"red",NA,"spots",100,"sapers"
"928",68,8625,"implied_prevalence","nondistinctive",25,"generic",NA,"silver",NA,"legs",100,"ackles"
"929",68,6053,"implied_prevalence","nondistinctive",28,"generic",NA,"pink",NA,"ears",100,"elleps"
"930",68,4897,"implied_prevalence","nondistinctive",29,"generic",NA,"blue",NA,"scales",100,"reesles"
"931",69,8368,"implied_prevalence","nondistinctive",2,"generic",NA,"green",NA,"teeth",25,"zoovs"
"932",69,3961,"implied_prevalence","nondistinctive",5,"generic",NA,"copper",NA,"stripes",35,"mooks"
"933",69,5019,"implied_prevalence","nondistinctive",9,"generic",NA,"purple",NA,"tails",30,"taifels"
"934",69,3540,"implied_prevalence","nondistinctive",16,"generic",NA,"pink",NA,"ears",55,"elleps"
"935",69,3750,"implied_prevalence","nondistinctive",18,"generic",NA,"blue",NA,"scales",75,"reesles"
"936",69,2266,"implied_prevalence","nondistinctive",21,"generic",NA,"red",NA,"spots",35,"sapers"
"937",69,1995,"implied_prevalence","nondistinctive",22,"generic",NA,"yellow",NA,"fur",35,"ollers"
"938",69,2346,"implied_prevalence","nondistinctive",25,"generic",NA,"orange",NA,"shells",20,"luzaks"
"939",69,2047,"implied_prevalence","nondistinctive",28,"generic",NA,"gold",NA,"feathers",50,"plovs"
"940",69,1806,"implied_prevalence","nondistinctive",29,"generic",NA,"silver",NA,"legs",55,"ackles"
"941",70,10149,"implied_prevalence","nondistinctive",0,"generic",NA,"green",NA,"teeth",100,"zoovs"
"942",70,20387,"implied_prevalence","nondistinctive",2,"generic",NA,"copper",NA,"stripes",100,"mooks"
"943",70,9381,"implied_prevalence","nondistinctive",11,"generic",NA,"red",NA,"spots",100,"sapers"
"944",70,14137,"implied_prevalence","nondistinctive",18,"generic",NA,"purple",NA,"tails",100,"taifels"
"945",70,4067,"implied_prevalence","nondistinctive",20,"generic",NA,"pink",NA,"ears",100,"elleps"
"946",70,7428,"implied_prevalence","nondistinctive",21,"generic",NA,"gold",NA,"feathers",100,"plovs"
"947",70,4295,"implied_prevalence","nondistinctive",23,"generic",NA,"orange",NA,"shells",100,"luzaks"
"948",70,5118,"implied_prevalence","nondistinctive",24,"generic",NA,"silver",NA,"legs",100,"ackles"
"949",70,8234,"implied_prevalence","nondistinctive",27,"generic",NA,"blue",NA,"scales",100,"reesles"
"950",70,4610,"implied_prevalence","nondistinctive",29,"generic",NA,"yellow",NA,"fur",100,"ollers"
"951",75,17538,"implied_prevalence","nondistinctive",2,"generic",NA,"copper",NA,"stripes",100,"mooks"
"952",75,12965,"implied_prevalence","nondistinctive",5,"generic",NA,"orange",NA,"shells",100,"luzaks"
"953",75,19631,"implied_prevalence","nondistinctive",6,"generic",NA,"red",NA,"spots",100,"sapers"
"954",75,11546,"implied_prevalence","nondistinctive",11,"generic",NA,"purple",NA,"tails",100,"taifels"
"955",75,15464,"implied_prevalence","nondistinctive",12,"generic",NA,"silver",NA,"legs",100,"ackles"
"956",75,13295,"implied_prevalence","nondistinctive",14,"generic",NA,"yellow",NA,"fur",100,"ollers"
"957",75,7105,"implied_prevalence","nondistinctive",17,"generic",NA,"pink",NA,"ears",100,"elleps"
"958",75,14954,"implied_prevalence","nondistinctive",18,"generic",NA,"blue",NA,"scales",100,"reesles"
"959",75,8150,"implied_prevalence","nondistinctive",25,"generic",NA,"green",NA,"teeth",100,"zoovs"
"960",75,9793,"implied_prevalence","nondistinctive",27,"generic",NA,"gold",NA,"feathers",100,"plovs"
"961",76,16853,"implied_prevalence","nondistinctive",8,"generic",NA,"yellow",NA,"fur",100,"ollers"
"962",76,16989,"implied_prevalence","nondistinctive",10,"generic",NA,"purple",NA,"tails",95,"taifels"
"963",76,20660,"implied_prevalence","nondistinctive",11,"generic",NA,"copper",NA,"stripes",98,"mooks"
"964",76,13243,"implied_prevalence","nondistinctive",14,"generic",NA,"red",NA,"spots",95,"sapers"
"965",76,15729,"implied_prevalence","nondistinctive",15,"generic",NA,"blue",NA,"scales",100,"reesles"
"966",76,13594,"implied_prevalence","nondistinctive",18,"generic",NA,"orange",NA,"shells",100,"luzaks"
"967",76,11633,"implied_prevalence","nondistinctive",20,"generic",NA,"green",NA,"teeth",100,"zoovs"
"968",76,13547,"implied_prevalence","nondistinctive",24,"generic",NA,"gold",NA,"feathers",100,"plovs"
"969",76,12550,"implied_prevalence","nondistinctive",27,"generic",NA,"pink",NA,"ears",100,"elleps"
"970",76,9278,"implied_prevalence","nondistinctive",29,"generic",NA,"silver",NA,"legs",95,"ackles"
"971",81,9385,"implied_prevalence","nondistinctive",5,"some",NA,"purple",NA,"tails",33,"taifels"
"972",81,5021,"implied_prevalence","nondistinctive",6,"some",NA,"blue",NA,"scales",33,"reesles"
"973",81,4014,"implied_prevalence","nondistinctive",7,"some",NA,"pink",NA,"ears",33,"elleps"
"974",81,3469,"implied_prevalence","nondistinctive",9,"some",NA,"silver",NA,"legs",33,"ackles"
"975",81,2616,"implied_prevalence","nondistinctive",10,"some",NA,"green",NA,"teeth",33,"zoovs"
"976",81,3239,"implied_prevalence","nondistinctive",11,"some",NA,"copper",NA,"stripes",33,"mooks"
"977",81,4234,"implied_prevalence","nondistinctive",13,"some",NA,"yellow",NA,"fur",33,"ollers"
"978",81,1945,"implied_prevalence","nondistinctive",24,"some",NA,"gold",NA,"feathers",33,"plovs"
"979",81,1573,"implied_prevalence","nondistinctive",28,"some",NA,"red",NA,"spots",33,"sapers"
"980",81,1663,"implied_prevalence","nondistinctive",29,"some",NA,"orange",NA,"shells",33,"luzaks"
"981",82,5857,"implied_prevalence","nondistinctive",2,"generic",NA,"copper",NA,"stripes",100,"mooks"
"982",82,5654,"implied_prevalence","nondistinctive",4,"generic",NA,"yellow",NA,"fur",100,"ollers"
"983",82,6762,"implied_prevalence","nondistinctive",5,"generic",NA,"red",NA,"spots",95,"sapers"
"984",82,5017,"implied_prevalence","nondistinctive",10,"generic",NA,"purple",NA,"tails",100,"taifels"
"985",82,3995,"implied_prevalence","nondistinctive",11,"generic",NA,"orange",NA,"shells",100,"luzaks"
"986",82,6423,"implied_prevalence","nondistinctive",13,"generic",NA,"blue",NA,"scales",100,"reesles"
"987",82,5887,"implied_prevalence","nondistinctive",18,"generic",NA,"green",NA,"teeth",100,"zoovs"
"988",82,4807,"implied_prevalence","nondistinctive",20,"generic",NA,"gold",NA,"feathers",100,"plovs"
"989",82,5284,"implied_prevalence","nondistinctive",21,"generic",NA,"silver",NA,"legs",100,"ackles"
"990",82,5788,"implied_prevalence","nondistinctive",23,"generic",NA,"pink",NA,"ears",100,"elleps"
"991",83,22468,"implied_prevalence","nondistinctive",4,"some",NA,"silver",NA,"legs",50,"ackles"
"992",83,3588,"implied_prevalence","nondistinctive",7,"some",NA,"purple",NA,"tails",50,"taifels"
"993",83,3587,"implied_prevalence","nondistinctive",9,"some",NA,"green",NA,"teeth",50,"zoovs"
"994",83,3556,"implied_prevalence","nondistinctive",10,"some",NA,"pink",NA,"ears",50,"elleps"
"995",83,24019,"implied_prevalence","nondistinctive",12,"some",NA,"orange",NA,"shells",50,"luzaks"
"996",83,3695,"implied_prevalence","nondistinctive",13,"some",NA,"copper",NA,"stripes",50,"mooks"
"997",83,2736,"implied_prevalence","nondistinctive",15,"some",NA,"gold",NA,"feathers",50,"plovs"
"998",83,2904,"implied_prevalence","nondistinctive",21,"some",NA,"yellow",NA,"fur",50,"ollers"
"999",83,3201,"implied_prevalence","nondistinctive",22,"some",NA,"blue",NA,"scales",50,"reesles"
"1000",83,2263,"implied_prevalence","nondistinctive",28,"some",NA,"red",NA,"spots",50,"sapers"
"1001",85,3159,"implied_prevalence","nondistinctive",2,"generic",NA,"gold",NA,"feathers",100,"plovs"
"1002",85,3124,"implied_prevalence","nondistinctive",3,"generic",NA,"red",NA,"spots",100,"sapers"
"1003",85,2594,"implied_prevalence","nondistinctive",8,"generic",NA,"purple",NA,"tails",100,"taifels"
"1004",85,2510,"implied_prevalence","nondistinctive",11,"generic",NA,"blue",NA,"scales",100,"reesles"
"1005",85,2530,"implied_prevalence","nondistinctive",12,"generic",NA,"silver",NA,"legs",100,"ackles"
"1006",85,2506,"implied_prevalence","nondistinctive",21,"generic",NA,"copper",NA,"stripes",100,"mooks"
"1007",85,2302,"implied_prevalence","nondistinctive",22,"generic",NA,"green",NA,"teeth",100,"zoovs"
"1008",85,1887,"implied_prevalence","nondistinctive",25,"generic",NA,"yellow",NA,"fur",100,"ollers"
"1009",85,2614,"implied_prevalence","nondistinctive",26,"generic",NA,"orange",NA,"shells",100,"luzaks"
