"","workerid","rt","trial_type","stim_type","stim_part","stim_determiner","trialNum","stim_color","stim_prevalence","response","stim_category"
"1",0,11517,"truth_conditions","distinct","stripes","generic",0,"copper",10,"True","mooks"
"2",0,6152,"truth_conditions","irrelevant","stripes","generic",1,"silver",30,"True","frams"
"3",0,5017,"truth_conditions","distinct","teeth","generic",2,"green",90,"True","zoovs"
"4",0,3634,"truth_conditions","bare","ears","generic",3,"blue",70,"True","cheebas"
"5",0,4168,"truth_conditions","distinct","ears","generic",4,"pink",50,"True","elleps"
"6",0,4614,"truth_conditions","distinct","shells","generic",5,"orange",90,"True","luzaks"
"7",0,3936,"truth_conditions","bare","teeth","generic",6,"pink",70,"True","krivels"
"8",0,4750,"truth_conditions","distinct","scales","generic",7,"blue",10,"True","reesles"
"9",0,4390,"truth_conditions","irrelevant","spots","generic",8,"gold",70,"True","stups"
"10",0,3276,"truth_conditions","bare","spots","generic",9,"copper",10,"True","glippets"
"11",0,3265,"truth_conditions","irrelevant","ears","generic",10,"orange",50,"True","kazzes"
"12",0,4700,"truth_conditions","irrelevant","teeth","generic",11,"blue",30,"True","thups"
"13",0,4685,"truth_conditions","distinct","spots","generic",12,"red",70,"True","sapers"
"14",0,4417,"truth_conditions","irrelevant","scales","generic",13,"yellow",10,"True","dorbs"
"15",0,3114,"truth_conditions","bare","scales","generic",14,"red",90,"True","blins"
"16",0,3083,"truth_conditions","bare","legs","generic",15,"yellow",50,"True","ludinos"
"17",0,4468,"truth_conditions","irrelevant","feathers","generic",16,"red",10,"True","noobs"
"18",0,3900,"truth_conditions","irrelevant","shells","generic",17,"purple",90,"True","javs"
"19",0,2866,"truth_conditions","bare","tails","generic",18,"orange",90,"True","zorbs"
"20",0,3500,"truth_conditions","bare","shells","generic",19,"green",50,"True","moxes"
"21",0,3166,"truth_conditions","irrelevant","legs","generic",20,"pink",90,"True","feps"
"22",0,4666,"truth_conditions","distinct","legs","generic",21,"silver",30,"True","ackles"
"23",0,3473,"truth_conditions","distinct","tails","generic",22,"purple",70,"True","taifels"
"24",0,3281,"truth_conditions","bare","stripes","generic",23,"gold",10,"True","daiths"
"25",0,3880,"truth_conditions","distinct","fur","generic",24,"yellow",50,"True","ollers"
"26",0,3632,"truth_conditions","distinct","feathers","generic",25,"gold",30,"True","plovs"
"27",0,3283,"truth_conditions","bare","fur","generic",26,"silver",30,"True","morseths"
"28",0,3434,"truth_conditions","irrelevant","tails","generic",27,"green",70,"True","trufts"
"29",0,3100,"truth_conditions","irrelevant","fur","generic",28,"copper",50,"True","kweps"
"30",0,2850,"truth_conditions","bare","feathers","generic",29,"purple",30,"True","lorches"
"31",1,6853,"truth_conditions","bare","fur","generic",0,"silver",90,"True","morseths"
"32",1,5854,"truth_conditions","distinct","scales","generic",1,"blue",90,"True","reesles"
"33",1,3808,"truth_conditions","bare","legs","generic",2,"yellow",30,"False","ludinos"
"34",1,9978,"truth_conditions","irrelevant","fur","generic",3,"copper",30,"False","kweps"
"35",1,6941,"truth_conditions","irrelevant","stripes","generic",4,"silver",50,"True","frams"
"36",1,5198,"truth_conditions","bare","feathers","generic",5,"purple",30,"False","lorches"
"37",1,10196,"truth_conditions","distinct","stripes","generic",6,"copper",10,"True","mooks"
"38",1,6571,"truth_conditions","irrelevant","legs","generic",7,"pink",70,"True","feps"
"39",1,6091,"truth_conditions","distinct","teeth","generic",8,"green",50,"True","zoovs"
"40",1,5152,"truth_conditions","distinct","feathers","generic",9,"gold",90,"True","plovs"
"41",1,4658,"truth_conditions","bare","stripes","generic",10,"gold",10,"False","daiths"
"42",1,7734,"truth_conditions","distinct","ears","generic",11,"pink",70,"True","elleps"
"43",1,11594,"truth_conditions","irrelevant","shells","generic",12,"purple",10,"False","javs"
"44",1,3812,"truth_conditions","irrelevant","scales","generic",13,"yellow",30,"False","dorbs"
"45",1,2218,"truth_conditions","bare","ears","generic",14,"blue",70,"True","cheebas"
"46",1,3688,"truth_conditions","distinct","shells","generic",15,"orange",70,"True","luzaks"
"47",1,1803,"truth_conditions","distinct","legs","generic",16,"silver",30,"False","ackles"
"48",1,3439,"truth_conditions","irrelevant","teeth","generic",17,"blue",90,"True","thups"
"49",1,1895,"truth_conditions","irrelevant","tails","generic",18,"green",10,"False","trufts"
"50",1,3190,"truth_conditions","irrelevant","spots","generic",19,"gold",70,"True","stups"
"51",1,4304,"truth_conditions","distinct","fur","generic",20,"yellow",50,"True","ollers"
"52",1,2975,"truth_conditions","bare","scales","generic",21,"red",50,"True","blins"
"53",1,2472,"truth_conditions","distinct","tails","generic",22,"purple",30,"False","taifels"
"54",1,1627,"truth_conditions","bare","teeth","generic",23,"pink",70,"True","krivels"
"55",1,2691,"truth_conditions","irrelevant","ears","generic",24,"orange",90,"True","kazzes"
"56",1,2791,"truth_conditions","bare","shells","generic",25,"green",50,"True","moxes"
"57",1,4063,"truth_conditions","irrelevant","feathers","generic",26,"red",50,"True","noobs"
"58",1,2662,"truth_conditions","bare","tails","generic",27,"orange",10,"False","zorbs"
"59",1,3041,"truth_conditions","bare","spots","generic",28,"copper",90,"True","glippets"
"60",1,2321,"truth_conditions","distinct","spots","generic",29,"red",10,"False","sapers"
"61",2,5929,"truth_conditions","bare","scales","generic",0,"red",50,"True","blins"
"62",2,44291,"truth_conditions","distinct","ears","generic",1,"pink",70,"True","elleps"
"63",2,28942,"truth_conditions","distinct","fur","generic",2,"yellow",70,"True","ollers"
"64",2,3641,"truth_conditions","irrelevant","stripes","generic",3,"silver",50,"True","frams"
"65",2,2150,"truth_conditions","bare","ears","generic",4,"blue",70,"True","cheebas"
"66",2,4968,"truth_conditions","irrelevant","spots","generic",5,"gold",50,"True","stups"
"67",2,5448,"truth_conditions","distinct","scales","generic",6,"blue",30,"False","reesles"
"68",2,5831,"truth_conditions","distinct","feathers","generic",7,"gold",30,"False","plovs"
"69",2,1871,"truth_conditions","distinct","shells","generic",8,"orange",50,"True","luzaks"
"70",2,3735,"truth_conditions","bare","shells","generic",9,"green",50,"True","moxes"
"71",2,1479,"truth_conditions","bare","tails","generic",10,"orange",90,"True","zorbs"
"72",2,4208,"truth_conditions","irrelevant","tails","generic",11,"green",70,"True","trufts"
"73",2,2368,"truth_conditions","irrelevant","scales","generic",12,"yellow",70,"True","dorbs"
"74",2,1479,"truth_conditions","distinct","teeth","generic",13,"green",90,"True","zoovs"
"75",2,1807,"truth_conditions","bare","stripes","generic",14,"gold",30,"False","daiths"
"76",2,2952,"truth_conditions","bare","teeth","generic",15,"pink",10,"False","krivels"
"77",2,1392,"truth_conditions","bare","spots","generic",16,"copper",90,"True","glippets"
"78",2,2232,"truth_conditions","irrelevant","ears","generic",17,"orange",90,"True","kazzes"
"79",2,3231,"truth_conditions","distinct","spots","generic",18,"red",50,"True","sapers"
"80",2,13834,"truth_conditions","distinct","legs","generic",19,"silver",10,"False","ackles"
"81",2,2822,"truth_conditions","bare","legs","generic",20,"yellow",70,"True","ludinos"
"82",2,2385,"truth_conditions","bare","fur","generic",21,"silver",10,"False","morseths"
"83",2,1871,"truth_conditions","irrelevant","fur","generic",22,"copper",10,"False","kweps"
"84",2,2041,"truth_conditions","irrelevant","shells","generic",23,"purple",30,"False","javs"
"85",2,3799,"truth_conditions","distinct","tails","generic",24,"purple",90,"True","taifels"
"86",2,5895,"truth_conditions","irrelevant","feathers","generic",25,"red",30,"False","noobs"
"87",2,3769,"truth_conditions","distinct","stripes","generic",26,"copper",10,"False","mooks"
"88",2,3080,"truth_conditions","irrelevant","legs","generic",27,"pink",10,"False","feps"
"89",2,2144,"truth_conditions","bare","feathers","generic",28,"purple",30,"False","lorches"
"90",2,2919,"truth_conditions","irrelevant","teeth","generic",29,"blue",90,"True","thups"
"91",3,10732,"truth_conditions","irrelevant","teeth","generic",0,"blue",70,"True","thups"
"92",3,9073,"truth_conditions","irrelevant","feathers","generic",1,"red",90,"True","noobs"
"93",3,11828,"truth_conditions","distinct","shells","generic",2,"orange",70,"True","luzaks"
"94",3,10866,"truth_conditions","distinct","legs","generic",3,"silver",90,"True","ackles"
"95",3,6556,"truth_conditions","bare","legs","generic",4,"yellow",30,"True","ludinos"
"96",3,5427,"truth_conditions","bare","spots","generic",5,"copper",50,"True","glippets"
"97",3,8467,"truth_conditions","irrelevant","scales","generic",6,"yellow",30,"True","dorbs"
"98",3,10357,"truth_conditions","distinct","stripes","generic",7,"copper",50,"True","mooks"
"99",3,9576,"truth_conditions","irrelevant","ears","generic",8,"orange",50,"True","kazzes"
"100",3,4946,"truth_conditions","bare","ears","generic",9,"blue",90,"True","cheebas"
"101",3,9892,"truth_conditions","irrelevant","fur","generic",10,"copper",10,"True","kweps"
"102",3,6929,"truth_conditions","irrelevant","spots","generic",11,"gold",30,"True","stups"
"103",3,4200,"truth_conditions","bare","feathers","generic",12,"purple",70,"True","lorches"
"104",3,4866,"truth_conditions","bare","teeth","generic",13,"pink",10,"True","krivels"
"105",3,4990,"truth_conditions","bare","shells","generic",14,"green",90,"True","moxes"
"106",3,3685,"truth_conditions","bare","tails","generic",15,"orange",30,"True","zorbs"
"107",3,10438,"truth_conditions","distinct","spots","generic",16,"red",50,"True","sapers"
"108",3,6284,"truth_conditions","distinct","scales","generic",17,"blue",30,"True","reesles"
"109",3,7284,"truth_conditions","irrelevant","shells","generic",18,"purple",50,"True","javs"
"110",3,6341,"truth_conditions","distinct","feathers","generic",19,"gold",10,"True","plovs"
"111",3,5474,"truth_conditions","bare","scales","generic",20,"red",70,"True","blins"
"112",3,5233,"truth_conditions","bare","stripes","generic",21,"gold",50,"True","daiths"
"113",3,6972,"truth_conditions","distinct","tails","generic",22,"purple",90,"True","taifels"
"114",3,8097,"truth_conditions","distinct","ears","generic",23,"pink",70,"True","elleps"
"115",3,8432,"truth_conditions","irrelevant","legs","generic",24,"pink",70,"True","feps"
"116",3,4163,"truth_conditions","bare","fur","generic",25,"silver",10,"True","morseths"
"117",3,8061,"truth_conditions","irrelevant","stripes","generic",26,"silver",90,"True","frams"
"118",3,7938,"truth_conditions","irrelevant","tails","generic",27,"green",10,"True","trufts"
"119",3,9407,"truth_conditions","distinct","fur","generic",28,"yellow",10,"True","ollers"
"120",3,8490,"truth_conditions","distinct","teeth","generic",29,"green",30,"True","zoovs"
"121",4,9286,"truth_conditions","bare","fur","generic",0,"silver",70,"False","morseths"
"122",4,2899,"truth_conditions","bare","tails","generic",1,"orange",50,"False","zorbs"
"123",4,2506,"truth_conditions","bare","ears","generic",2,"blue",10,"False","cheebas"
"124",4,7029,"truth_conditions","irrelevant","shells","generic",3,"purple",70,"True","javs"
"125",4,3045,"truth_conditions","bare","legs","generic",4,"yellow",10,"True","ludinos"
"126",4,2739,"truth_conditions","irrelevant","scales","generic",5,"yellow",50,"True","dorbs"
"127",4,2388,"truth_conditions","irrelevant","legs","generic",6,"pink",90,"True","feps"
"128",4,4064,"truth_conditions","distinct","spots","generic",7,"red",10,"True","sapers"
"129",4,9600,"truth_conditions","irrelevant","tails","generic",8,"green",30,"True","trufts"
"130",4,3074,"truth_conditions","distinct","stripes","generic",9,"copper",50,"True","mooks"
"131",4,4212,"truth_conditions","irrelevant","teeth","generic",10,"blue",70,"True","thups"
"132",4,14683,"truth_conditions","distinct","fur","generic",11,"yellow",90,"True","ollers"
"133",4,7892,"truth_conditions","distinct","ears","generic",12,"pink",10,"True","elleps"
"134",4,2949,"truth_conditions","bare","scales","generic",13,"red",90,"True","blins"
"135",4,3385,"truth_conditions","irrelevant","fur","generic",14,"copper",30,"True","kweps"
"136",4,2570,"truth_conditions","irrelevant","stripes","generic",15,"silver",50,"True","frams"
"137",4,3437,"truth_conditions","distinct","legs","generic",16,"silver",30,"True","ackles"
"138",4,3056,"truth_conditions","bare","feathers","generic",17,"purple",30,"True","lorches"
"139",4,3803,"truth_conditions","irrelevant","ears","generic",18,"orange",10,"True","kazzes"
"140",4,3808,"truth_conditions","bare","spots","generic",19,"copper",70,"True","glippets"
"141",4,1893,"truth_conditions","bare","shells","generic",20,"green",90,"True","moxes"
"142",4,4424,"truth_conditions","distinct","feathers","generic",21,"gold",70,"True","plovs"
"143",4,3170,"truth_conditions","distinct","shells","generic",22,"orange",30,"True","luzaks"
"144",4,4199,"truth_conditions","irrelevant","spots","generic",23,"gold",10,"False","stups"
"145",4,3628,"truth_conditions","bare","teeth","generic",24,"pink",30,"True","krivels"
"146",4,3910,"truth_conditions","distinct","teeth","generic",25,"green",90,"True","zoovs"
"147",4,3212,"truth_conditions","distinct","scales","generic",26,"blue",70,"True","reesles"
"148",4,2538,"truth_conditions","distinct","tails","generic",27,"purple",50,"True","taifels"
"149",4,1931,"truth_conditions","irrelevant","feathers","generic",28,"red",90,"True","noobs"
"150",4,3740,"truth_conditions","bare","stripes","generic",29,"gold",50,"True","daiths"
"151",5,11890,"truth_conditions","irrelevant","scales","generic",0,"yellow",10,"True","dorbs"
"152",5,28221,"truth_conditions","irrelevant","spots","generic",1,"gold",30,"True","stups"
"153",5,7100,"truth_conditions","distinct","shells","generic",2,"orange",30,"False","luzaks"
"154",5,5839,"truth_conditions","irrelevant","fur","generic",3,"copper",70,"True","kweps"
"155",5,8159,"truth_conditions","bare","teeth","generic",4,"pink",10,"False","krivels"
"156",5,3958,"truth_conditions","bare","feathers","generic",5,"purple",30,"False","lorches"
"157",5,5202,"truth_conditions","distinct","stripes","generic",6,"copper",50,"False","mooks"
"158",5,5668,"truth_conditions","distinct","scales","generic",7,"blue",90,"True","reesles"
"159",5,5500,"truth_conditions","irrelevant","stripes","generic",8,"silver",90,"True","frams"
"160",5,5655,"truth_conditions","distinct","legs","generic",9,"silver",30,"False","ackles"
"161",5,4759,"truth_conditions","bare","fur","generic",10,"silver",90,"True","morseths"
"162",5,4537,"truth_conditions","bare","tails","generic",11,"orange",70,"True","zorbs"
"163",5,3155,"truth_conditions","distinct","fur","generic",12,"yellow",70,"False","ollers"
"164",5,3639,"truth_conditions","bare","spots","generic",13,"copper",30,"False","glippets"
"165",5,3502,"truth_conditions","distinct","feathers","generic",14,"gold",70,"False","plovs"
"166",5,4572,"truth_conditions","bare","scales","generic",15,"red",70,"True","blins"
"167",5,10020,"truth_conditions","irrelevant","tails","generic",16,"green",50,"False","trufts"
"168",5,33313,"truth_conditions","distinct","teeth","generic",17,"green",10,"False","zoovs"
"169",5,4165,"truth_conditions","irrelevant","ears","generic",18,"orange",70,"True","kazzes"
"170",5,3563,"truth_conditions","irrelevant","teeth","generic",19,"blue",30,"False","thups"
"171",5,3451,"truth_conditions","bare","ears","generic",20,"blue",50,"False","cheebas"
"172",5,3286,"truth_conditions","irrelevant","feathers","generic",21,"red",10,"False","noobs"
"173",5,2992,"truth_conditions","bare","shells","generic",22,"green",90,"True","moxes"
"174",5,20173,"truth_conditions","distinct","tails","generic",23,"purple",10,"False","taifels"
"175",5,4913,"truth_conditions","bare","stripes","generic",24,"gold",10,"False","daiths"
"176",5,5257,"truth_conditions","distinct","ears","generic",25,"pink",90,"True","elleps"
"177",5,2941,"truth_conditions","bare","legs","generic",26,"yellow",50,"False","ludinos"
"178",5,4683,"truth_conditions","irrelevant","shells","generic",27,"purple",50,"False","javs"
"179",5,4003,"truth_conditions","distinct","spots","generic",28,"red",50,"False","sapers"
"180",5,5196,"truth_conditions","irrelevant","legs","generic",29,"pink",90,"False","feps"
"181",6,14493,"truth_conditions","distinct","stripes","generic",0,"copper",30,"True","mooks"
"182",6,11722,"truth_conditions","irrelevant","ears","generic",1,"orange",90,"True","kazzes"
"183",6,5458,"truth_conditions","distinct","shells","generic",2,"orange",90,"True","luzaks"
"184",6,7418,"truth_conditions","irrelevant","teeth","generic",3,"blue",10,"False","thups"
"185",6,5459,"truth_conditions","distinct","teeth","generic",4,"green",90,"True","zoovs"
"186",6,7949,"truth_conditions","distinct","ears","generic",5,"pink",30,"False","elleps"
"187",6,4295,"truth_conditions","bare","feathers","generic",6,"purple",30,"False","lorches"
"188",6,8060,"truth_conditions","distinct","feathers","generic",7,"gold",50,"True","plovs"
"189",6,3820,"truth_conditions","irrelevant","tails","generic",8,"green",70,"True","trufts"
"190",6,2456,"truth_conditions","bare","spots","generic",9,"copper",70,"True","glippets"
"191",6,7087,"truth_conditions","irrelevant","legs","generic",10,"pink",50,"True","feps"
"192",6,3213,"truth_conditions","bare","shells","generic",11,"green",90,"True","moxes"
"193",6,9791,"truth_conditions","distinct","fur","generic",12,"yellow",50,"True","ollers"
"194",6,12286,"truth_conditions","distinct","tails","generic",13,"purple",10,"True","taifels"
"195",6,8086,"truth_conditions","irrelevant","spots","generic",14,"gold",50,"True","stups"
"196",6,14455,"truth_conditions","distinct","scales","generic",15,"blue",10,"False","reesles"
"197",6,2723,"truth_conditions","bare","fur","generic",16,"silver",70,"True","morseths"
"198",6,4510,"truth_conditions","bare","tails","generic",17,"orange",10,"False","zorbs"
"199",6,7904,"truth_conditions","irrelevant","shells","generic",18,"purple",70,"True","javs"
"200",6,9487,"truth_conditions","irrelevant","feathers","generic",19,"red",30,"False","noobs"
"201",6,4020,"truth_conditions","bare","teeth","generic",20,"pink",10,"False","krivels"
"202",6,3935,"truth_conditions","irrelevant","scales","generic",21,"yellow",30,"False","dorbs"
"203",6,5674,"truth_conditions","irrelevant","stripes","generic",22,"silver",90,"True","frams"
"204",6,2316,"truth_conditions","bare","scales","generic",23,"red",50,"True","blins"
"205",6,4243,"truth_conditions","distinct","legs","generic",24,"silver",70,"True","ackles"
"206",6,2660,"truth_conditions","bare","legs","generic",25,"yellow",50,"True","ludinos"
"207",6,3818,"truth_conditions","distinct","spots","generic",26,"red",70,"True","sapers"
"208",6,4992,"truth_conditions","irrelevant","fur","generic",27,"copper",10,"False","kweps"
"209",6,2647,"truth_conditions","bare","stripes","generic",28,"gold",90,"True","daiths"
"210",6,2335,"truth_conditions","bare","ears","generic",29,"blue",30,"False","cheebas"
"211",7,12186,"truth_conditions","distinct","ears","generic",0,"pink",50,"True","elleps"
"212",7,6509,"truth_conditions","distinct","feathers","generic",1,"gold",50,"True","plovs"
"213",7,6247,"truth_conditions","irrelevant","scales","generic",2,"yellow",30,"False","dorbs"
"214",7,9853,"truth_conditions","bare","ears","generic",3,"blue",70,"True","cheebas"
"215",7,2669,"truth_conditions","bare","tails","generic",4,"orange",30,"False","zorbs"
"216",7,4734,"truth_conditions","irrelevant","stripes","generic",5,"silver",50,"True","frams"
"217",7,2575,"truth_conditions","bare","feathers","generic",6,"purple",10,"False","lorches"
"218",7,2431,"truth_conditions","bare","shells","generic",7,"green",10,"False","moxes"
"219",7,6205,"truth_conditions","irrelevant","tails","generic",8,"green",10,"False","trufts"
"220",7,44100,"truth_conditions","distinct","teeth","generic",9,"green",10,"False","zoovs"
"221",7,2329,"truth_conditions","bare","stripes","generic",10,"gold",50,"True","daiths"
"222",7,2774,"truth_conditions","irrelevant","shells","generic",11,"purple",30,"False","javs"
"223",7,3411,"truth_conditions","distinct","scales","generic",12,"blue",10,"False","reesles"
"224",7,3262,"truth_conditions","irrelevant","legs","generic",13,"pink",90,"True","feps"
"225",7,3488,"truth_conditions","bare","legs","generic",14,"yellow",90,"True","ludinos"
"226",7,2534,"truth_conditions","distinct","tails","generic",15,"purple",30,"False","taifels"
"227",7,2742,"truth_conditions","distinct","fur","generic",16,"yellow",30,"False","ollers"
"228",7,2393,"truth_conditions","bare","teeth","generic",17,"pink",90,"True","krivels"
"229",7,3064,"truth_conditions","distinct","spots","generic",18,"red",90,"True","sapers"
"230",7,2146,"truth_conditions","bare","spots","generic",19,"copper",50,"True","glippets"
"231",7,3074,"truth_conditions","irrelevant","teeth","generic",20,"blue",70,"True","thups"
"232",7,3515,"truth_conditions","irrelevant","spots","generic",21,"gold",90,"True","stups"
"233",7,2129,"truth_conditions","irrelevant","fur","generic",22,"copper",70,"True","kweps"
"234",7,3291,"truth_conditions","irrelevant","feathers","generic",23,"red",10,"False","noobs"
"235",7,2216,"truth_conditions","bare","scales","generic",24,"red",30,"False","blins"
"236",7,3069,"truth_conditions","bare","fur","generic",25,"silver",70,"True","morseths"
"237",7,3592,"truth_conditions","distinct","stripes","generic",26,"copper",90,"True","mooks"
"238",7,3053,"truth_conditions","irrelevant","ears","generic",27,"orange",50,"True","kazzes"
"239",7,4731,"truth_conditions","distinct","shells","generic",28,"orange",70,"True","luzaks"
"240",7,2802,"truth_conditions","distinct","legs","generic",29,"silver",70,"True","ackles"
"241",8,8590,"truth_conditions","bare","fur","generic",0,"silver",90,"True","morseths"
"242",8,7367,"truth_conditions","distinct","spots","generic",1,"red",90,"True","sapers"
"243",8,18837,"truth_conditions","distinct","legs","generic",2,"silver",70,"True","ackles"
"244",8,9147,"truth_conditions","bare","ears","generic",3,"blue",30,"False","cheebas"
"245",8,4922,"truth_conditions","irrelevant","tails","generic",4,"green",90,"True","trufts"
"246",8,6653,"truth_conditions","distinct","tails","generic",5,"purple",30,"False","taifels"
"247",8,2673,"truth_conditions","bare","shells","generic",6,"green",50,"True","moxes"
"248",8,9770,"truth_conditions","bare","feathers","generic",7,"purple",90,"True","lorches"
"249",8,10246,"truth_conditions","irrelevant","spots","generic",8,"gold",30,"True","stups"
"250",8,5339,"truth_conditions","bare","stripes","generic",9,"gold",10,"True","daiths"
"251",8,3247,"truth_conditions","bare","scales","generic",10,"red",30,"True","blins"
"252",8,4148,"truth_conditions","distinct","ears","generic",11,"pink",70,"True","elleps"
"253",8,3920,"truth_conditions","irrelevant","stripes","generic",12,"silver",30,"True","frams"
"254",8,4668,"truth_conditions","distinct","stripes","generic",13,"copper",10,"False","mooks"
"255",8,1999,"truth_conditions","bare","spots","generic",14,"copper",70,"True","glippets"
"256",8,3071,"truth_conditions","distinct","fur","generic",15,"yellow",90,"True","ollers"
"257",8,2806,"truth_conditions","bare","teeth","generic",16,"pink",70,"True","krivels"
"258",8,2464,"truth_conditions","bare","legs","generic",17,"yellow",10,"False","ludinos"
"259",8,2983,"truth_conditions","distinct","feathers","generic",18,"gold",50,"True","plovs"
"260",8,1808,"truth_conditions","irrelevant","feathers","generic",19,"red",70,"True","noobs"
"261",8,1542,"truth_conditions","distinct","shells","generic",20,"orange",50,"True","luzaks"
"262",8,2652,"truth_conditions","irrelevant","legs","generic",21,"pink",50,"True","feps"
"263",8,3284,"truth_conditions","irrelevant","shells","generic",22,"purple",10,"False","javs"
"264",8,2380,"truth_conditions","bare","tails","generic",23,"orange",50,"True","zorbs"
"265",8,2084,"truth_conditions","irrelevant","ears","generic",24,"orange",70,"True","kazzes"
"266",8,1701,"truth_conditions","irrelevant","fur","generic",25,"copper",90,"True","kweps"
"267",8,3187,"truth_conditions","irrelevant","teeth","generic",26,"blue",10,"False","thups"
"268",8,8276,"truth_conditions","distinct","teeth","generic",27,"green",30,"False","zoovs"
"269",8,3279,"truth_conditions","irrelevant","scales","generic",28,"yellow",50,"True","dorbs"
"270",8,10821,"truth_conditions","distinct","scales","generic",29,"blue",10,"False","reesles"
"271",9,19139,"truth_conditions","irrelevant","tails","generic",0,"green",70,"True","trufts"
"272",9,39494,"truth_conditions","irrelevant","spots","generic",1,"gold",90,"False","stups"
"273",9,6490,"truth_conditions","bare","shells","generic",2,"green",70,"False","moxes"
"274",9,7175,"truth_conditions","irrelevant","legs","generic",3,"pink",90,"False","feps"
"275",9,7454,"truth_conditions","distinct","scales","generic",4,"blue",70,"False","reesles"
"276",9,5128,"truth_conditions","bare","stripes","generic",5,"gold",50,"False","daiths"
"277",9,9022,"truth_conditions","distinct","fur","generic",6,"yellow",90,"False","ollers"
"278",9,9247,"truth_conditions","distinct","legs","generic",7,"silver",10,"False","ackles"
"279",9,5678,"truth_conditions","distinct","shells","generic",8,"orange",70,"False","luzaks"
"280",9,5580,"truth_conditions","irrelevant","feathers","generic",9,"red",50,"False","noobs"
"281",9,5637,"truth_conditions","bare","feathers","generic",10,"purple",90,"False","lorches"
"282",9,5485,"truth_conditions","distinct","feathers","generic",11,"gold",90,"False","plovs"
"283",9,5356,"truth_conditions","bare","spots","generic",12,"copper",10,"False","glippets"
"284",9,7039,"truth_conditions","distinct","tails","generic",13,"purple",50,"False","taifels"
"285",9,5226,"truth_conditions","bare","ears","generic",14,"blue",90,"False","cheebas"
"286",9,6548,"truth_conditions","irrelevant","teeth","generic",15,"blue",10,"False","thups"
"287",9,5533,"truth_conditions","distinct","ears","generic",16,"pink",30,"False","elleps"
"288",9,2727,"truth_conditions","bare","scales","generic",17,"red",10,"False","blins"
"289",9,5177,"truth_conditions","irrelevant","stripes","generic",18,"silver",10,"False","frams"
"290",9,4352,"truth_conditions","distinct","stripes","generic",19,"copper",10,"False","mooks"
"291",9,5132,"truth_conditions","distinct","spots","generic",20,"red",30,"False","sapers"
"292",9,4312,"truth_conditions","bare","teeth","generic",21,"pink",50,"False","krivels"
"293",9,6447,"truth_conditions","irrelevant","scales","generic",22,"yellow",30,"False","dorbs"
"294",9,2882,"truth_conditions","bare","legs","generic",23,"yellow",30,"False","ludinos"
"295",9,5418,"truth_conditions","irrelevant","ears","generic",24,"orange",50,"False","kazzes"
"296",9,5772,"truth_conditions","irrelevant","shells","generic",25,"purple",70,"False","javs"
"297",9,2900,"truth_conditions","bare","fur","generic",26,"silver",70,"False","morseths"
"298",9,3901,"truth_conditions","irrelevant","fur","generic",27,"copper",30,"False","kweps"
"299",9,2581,"truth_conditions","distinct","teeth","generic",28,"green",50,"False","zoovs"
"300",9,2420,"truth_conditions","bare","tails","generic",29,"orange",30,"False","zorbs"
"301",10,5304,"truth_conditions","bare","scales","generic",0,"red",90,"True","blins"
"302",10,4189,"truth_conditions","distinct","legs","generic",1,"silver",10,"False","ackles"
"303",10,3304,"truth_conditions","irrelevant","ears","generic",2,"orange",50,"True","kazzes"
"304",10,4352,"truth_conditions","bare","fur","generic",3,"silver",10,"False","morseths"
"305",10,3053,"truth_conditions","irrelevant","legs","generic",4,"pink",10,"False","feps"
"306",10,3388,"truth_conditions","bare","shells","generic",5,"green",10,"False","moxes"
"307",10,9043,"truth_conditions","distinct","fur","generic",6,"yellow",30,"False","ollers"
"308",10,2167,"truth_conditions","distinct","teeth","generic",7,"green",90,"True","zoovs"
"309",10,3221,"truth_conditions","irrelevant","stripes","generic",8,"silver",10,"False","frams"
"310",10,5787,"truth_conditions","distinct","tails","generic",9,"purple",50,"True","taifels"
"311",10,3906,"truth_conditions","bare","legs","generic",10,"yellow",90,"True","ludinos"
"312",10,5022,"truth_conditions","irrelevant","tails","generic",11,"green",30,"False","trufts"
"313",10,2785,"truth_conditions","irrelevant","shells","generic",12,"purple",70,"True","javs"
"314",10,1772,"truth_conditions","distinct","spots","generic",13,"red",30,"False","sapers"
"315",10,1965,"truth_conditions","bare","tails","generic",14,"orange",70,"True","zorbs"
"316",10,2234,"truth_conditions","bare","teeth","generic",15,"pink",30,"False","krivels"
"317",10,1954,"truth_conditions","distinct","shells","generic",16,"orange",90,"True","luzaks"
"318",10,1567,"truth_conditions","bare","spots","generic",17,"copper",50,"True","glippets"
"319",10,2388,"truth_conditions","bare","ears","generic",18,"blue",70,"True","cheebas"
"320",10,3868,"truth_conditions","distinct","ears","generic",19,"pink",70,"True","elleps"
"321",10,2420,"truth_conditions","irrelevant","fur","generic",20,"copper",90,"True","kweps"
"322",10,2618,"truth_conditions","irrelevant","spots","generic",21,"gold",50,"True","stups"
"323",10,2385,"truth_conditions","distinct","scales","generic",22,"blue",70,"True","reesles"
"324",10,1937,"truth_conditions","irrelevant","teeth","generic",23,"blue",70,"True","thups"
"325",10,1550,"truth_conditions","bare","stripes","generic",24,"gold",50,"True","daiths"
"326",10,1836,"truth_conditions","bare","feathers","generic",25,"purple",30,"False","lorches"
"327",10,2233,"truth_conditions","irrelevant","scales","generic",26,"yellow",30,"False","dorbs"
"328",10,1436,"truth_conditions","distinct","feathers","generic",27,"gold",50,"True","plovs"
"329",10,1502,"truth_conditions","irrelevant","feathers","generic",28,"red",90,"True","noobs"
"330",10,1349,"truth_conditions","distinct","stripes","generic",29,"copper",10,"False","mooks"
"331",11,6193,"truth_conditions","bare","fur","generic",0,"silver",90,"True","morseths"
"332",11,6260,"truth_conditions","distinct","ears","generic",1,"pink",10,"False","elleps"
"333",11,5514,"truth_conditions","bare","feathers","generic",2,"purple",70,"True","lorches"
"334",11,3438,"truth_conditions","distinct","teeth","generic",3,"green",90,"True","zoovs"
"335",11,3036,"truth_conditions","distinct","shells","generic",4,"orange",70,"True","luzaks"
"336",11,2038,"truth_conditions","bare","teeth","generic",5,"pink",10,"False","krivels"
"337",11,4186,"truth_conditions","irrelevant","fur","generic",6,"copper",50,"True","kweps"
"338",11,1795,"truth_conditions","irrelevant","ears","generic",7,"orange",50,"True","kazzes"
"339",11,2169,"truth_conditions","distinct","tails","generic",8,"purple",30,"False","taifels"
"340",11,2652,"truth_conditions","irrelevant","teeth","generic",9,"blue",70,"False","thups"
"341",11,2643,"truth_conditions","distinct","stripes","generic",10,"copper",70,"True","mooks"
"342",11,3057,"truth_conditions","irrelevant","stripes","generic",11,"silver",30,"False","frams"
"343",11,2701,"truth_conditions","distinct","scales","generic",12,"blue",50,"True","reesles"
"344",11,2039,"truth_conditions","irrelevant","scales","generic",13,"yellow",10,"False","dorbs"
"345",11,2106,"truth_conditions","irrelevant","shells","generic",14,"purple",70,"True","javs"
"346",11,1855,"truth_conditions","bare","stripes","generic",15,"gold",50,"True","daiths"
"347",11,2431,"truth_conditions","bare","shells","generic",16,"green",30,"False","moxes"
"348",11,2229,"truth_conditions","irrelevant","tails","generic",17,"green",10,"False","trufts"
"349",11,1805,"truth_conditions","irrelevant","legs","generic",18,"pink",90,"True","feps"
"350",11,4553,"truth_conditions","bare","scales","generic",19,"red",10,"False","blins"
"351",11,4024,"truth_conditions","bare","legs","generic",20,"yellow",30,"False","ludinos"
"352",11,1937,"truth_conditions","distinct","feathers","generic",21,"gold",90,"True","plovs"
"353",11,2793,"truth_conditions","irrelevant","feathers","generic",22,"red",90,"True","noobs"
"354",11,2441,"truth_conditions","irrelevant","spots","generic",23,"gold",30,"False","stups"
"355",11,1926,"truth_conditions","distinct","legs","generic",24,"silver",50,"True","ackles"
"356",11,2270,"truth_conditions","bare","tails","generic",25,"orange",50,"True","zorbs"
"357",11,2048,"truth_conditions","bare","ears","generic",26,"blue",70,"True","cheebas"
"358",11,3095,"truth_conditions","distinct","spots","generic",27,"red",30,"False","sapers"
"359",11,1979,"truth_conditions","distinct","fur","generic",28,"yellow",10,"False","ollers"
"360",11,3013,"truth_conditions","bare","spots","generic",29,"copper",90,"True","glippets"
"361",12,29611,"truth_conditions","bare","stripes","generic",0,"gold",90,"True","daiths"
"362",12,5801,"truth_conditions","irrelevant","spots","generic",1,"gold",30,"False","stups"
"363",12,8570,"truth_conditions","distinct","teeth","generic",2,"green",30,"False","zoovs"
"364",12,5121,"truth_conditions","distinct","feathers","generic",3,"gold",30,"False","plovs"
"365",12,4441,"truth_conditions","distinct","stripes","generic",4,"copper",10,"False","mooks"
"366",12,3549,"truth_conditions","bare","tails","generic",5,"orange",30,"False","zorbs"
"367",12,5112,"truth_conditions","irrelevant","tails","generic",6,"green",50,"True","trufts"
"368",12,3807,"truth_conditions","irrelevant","legs","generic",7,"pink",90,"True","feps"
"369",12,4648,"truth_conditions","irrelevant","ears","generic",8,"orange",10,"False","kazzes"
"370",12,4323,"truth_conditions","distinct","fur","generic",9,"yellow",70,"True","ollers"
"371",12,4402,"truth_conditions","irrelevant","stripes","generic",10,"silver",50,"True","frams"
"372",12,4016,"truth_conditions","irrelevant","feathers","generic",11,"red",30,"False","noobs"
"373",12,2535,"truth_conditions","bare","scales","generic",12,"red",70,"True","blins"
"374",12,3953,"truth_conditions","bare","teeth","generic",13,"pink",10,"False","krivels"
"375",12,2388,"truth_conditions","bare","feathers","generic",14,"purple",90,"True","lorches"
"376",12,4033,"truth_conditions","irrelevant","fur","generic",15,"copper",10,"False","kweps"
"377",12,2284,"truth_conditions","bare","ears","generic",16,"blue",10,"False","cheebas"
"378",12,1917,"truth_conditions","bare","legs","generic",17,"yellow",50,"True","ludinos"
"379",12,2711,"truth_conditions","irrelevant","teeth","generic",18,"blue",70,"True","thups"
"380",12,3687,"truth_conditions","irrelevant","shells","generic",19,"purple",90,"True","javs"
"381",12,3631,"truth_conditions","distinct","ears","generic",20,"pink",90,"True","elleps"
"382",12,4263,"truth_conditions","irrelevant","scales","generic",21,"yellow",70,"True","dorbs"
"383",12,5179,"truth_conditions","distinct","tails","generic",22,"purple",50,"True","taifels"
"384",12,3743,"truth_conditions","bare","fur","generic",23,"silver",70,"True","morseths"
"385",12,2606,"truth_conditions","distinct","spots","generic",24,"red",90,"True","sapers"
"386",12,2797,"truth_conditions","bare","spots","generic",25,"copper",30,"False","glippets"
"387",12,4428,"truth_conditions","distinct","legs","generic",26,"silver",70,"True","ackles"
"388",12,3542,"truth_conditions","distinct","shells","generic",27,"orange",50,"True","luzaks"
"389",12,3938,"truth_conditions","distinct","scales","generic",28,"blue",10,"False","reesles"
"390",12,3788,"truth_conditions","bare","shells","generic",29,"green",50,"True","moxes"
"391",13,8405,"truth_conditions","bare","feathers","generic",0,"purple",70,"True","lorches"
"392",13,7361,"truth_conditions","irrelevant","feathers","generic",1,"red",90,"True","noobs"
"393",13,7510,"truth_conditions","distinct","tails","generic",2,"purple",10,"False","taifels"
"394",13,8545,"truth_conditions","distinct","shells","generic",3,"orange",10,"False","luzaks"
"395",13,4570,"truth_conditions","distinct","ears","generic",4,"pink",30,"False","elleps"
"396",13,5064,"truth_conditions","distinct","fur","generic",5,"yellow",90,"True","ollers"
"397",13,9880,"truth_conditions","irrelevant","legs","generic",6,"pink",10,"False","feps"
"398",13,3979,"truth_conditions","bare","fur","generic",7,"silver",70,"True","morseths"
"399",13,4703,"truth_conditions","irrelevant","teeth","generic",8,"blue",50,"True","thups"
"400",13,6557,"truth_conditions","bare","stripes","generic",9,"gold",30,"False","daiths"
"401",13,5876,"truth_conditions","distinct","teeth","generic",10,"green",70,"True","zoovs"
"402",13,7151,"truth_conditions","irrelevant","scales","generic",11,"yellow",50,"True","dorbs"
"403",13,8537,"truth_conditions","irrelevant","spots","generic",12,"gold",70,"True","stups"
"404",13,7830,"truth_conditions","distinct","legs","generic",13,"silver",30,"False","ackles"
"405",13,4989,"truth_conditions","distinct","scales","generic",14,"blue",50,"True","reesles"
"406",13,4718,"truth_conditions","distinct","spots","generic",15,"red",90,"True","sapers"
"407",13,6547,"truth_conditions","irrelevant","tails","generic",16,"green",10,"False","trufts"
"408",13,3211,"truth_conditions","bare","scales","generic",17,"red",90,"True","blins"
"409",13,3384,"truth_conditions","bare","legs","generic",18,"yellow",10,"False","ludinos"
"410",13,5338,"truth_conditions","bare","ears","generic",19,"blue",10,"False","cheebas"
"411",13,4507,"truth_conditions","bare","shells","generic",20,"green",50,"True","moxes"
"412",13,3294,"truth_conditions","bare","teeth","generic",21,"pink",50,"True","krivels"
"413",13,4966,"truth_conditions","bare","tails","generic",22,"orange",90,"True","zorbs"
"414",13,6869,"truth_conditions","irrelevant","shells","generic",23,"purple",90,"True","javs"
"415",13,4445,"truth_conditions","irrelevant","ears","generic",24,"orange",30,"False","kazzes"
"416",13,8400,"truth_conditions","distinct","stripes","generic",25,"copper",70,"True","mooks"
"417",13,6274,"truth_conditions","irrelevant","fur","generic",26,"copper",30,"False","kweps"
"418",13,5434,"truth_conditions","distinct","feathers","generic",27,"gold",50,"True","plovs"
"419",13,4361,"truth_conditions","irrelevant","stripes","generic",28,"silver",70,"True","frams"
"420",13,5621,"truth_conditions","bare","spots","generic",29,"copper",30,"False","glippets"
"421",14,13359,"truth_conditions","irrelevant","stripes","generic",0,"silver",50,"True","frams"
"422",14,10538,"truth_conditions","distinct","feathers","generic",1,"gold",70,"True","plovs"
"423",14,13433,"truth_conditions","irrelevant","shells","generic",2,"purple",70,"True","javs"
"424",14,8218,"truth_conditions","bare","teeth","generic",3,"pink",50,"False","krivels"
"425",14,9708,"truth_conditions","distinct","tails","generic",4,"purple",10,"False","taifels"
"426",14,3421,"truth_conditions","bare","shells","generic",5,"green",70,"True","moxes"
"427",14,4565,"truth_conditions","bare","fur","generic",6,"silver",90,"True","morseths"
"428",14,5837,"truth_conditions","bare","stripes","generic",7,"gold",30,"False","daiths"
"429",14,6504,"truth_conditions","irrelevant","legs","generic",8,"pink",30,"False","feps"
"430",14,7657,"truth_conditions","distinct","spots","generic",9,"red",10,"False","sapers"
"431",14,10789,"truth_conditions","irrelevant","tails","generic",10,"green",30,"True","trufts"
"432",14,4146,"truth_conditions","distinct","ears","generic",11,"pink",70,"True","elleps"
"433",14,4678,"truth_conditions","bare","tails","generic",12,"orange",30,"True","zorbs"
"434",14,4101,"truth_conditions","irrelevant","teeth","generic",13,"blue",90,"True","thups"
"435",14,4504,"truth_conditions","distinct","scales","generic",14,"blue",30,"True","reesles"
"436",14,6030,"truth_conditions","distinct","fur","generic",15,"yellow",50,"True","ollers"
"437",14,3069,"truth_conditions","bare","feathers","generic",16,"purple",10,"False","lorches"
"438",14,5625,"truth_conditions","irrelevant","ears","generic",17,"orange",70,"True","kazzes"
"439",14,3891,"truth_conditions","irrelevant","spots","generic",18,"gold",10,"False","stups"
"440",14,8013,"truth_conditions","distinct","shells","generic",19,"orange",50,"True","luzaks"
"441",14,4006,"truth_conditions","bare","scales","generic",20,"red",90,"True","blins"
"442",14,2772,"truth_conditions","bare","ears","generic",21,"blue",10,"False","cheebas"
"443",14,3568,"truth_conditions","distinct","stripes","generic",22,"copper",90,"True","mooks"
"444",14,3608,"truth_conditions","bare","legs","generic",23,"yellow",50,"True","ludinos"
"445",14,3930,"truth_conditions","irrelevant","feathers","generic",24,"red",10,"False","noobs"
"446",14,2584,"truth_conditions","bare","spots","generic",25,"copper",70,"True","glippets"
"447",14,6203,"truth_conditions","irrelevant","scales","generic",26,"yellow",50,"True","dorbs"
"448",14,11359,"truth_conditions","distinct","legs","generic",27,"silver",90,"True","ackles"
"449",14,3268,"truth_conditions","irrelevant","fur","generic",28,"copper",90,"True","kweps"
"450",14,3992,"truth_conditions","distinct","teeth","generic",29,"green",30,"True","zoovs"
"451",15,12530,"truth_conditions","irrelevant","spots","generic",0,"gold",70,"True","stups"
"452",15,7751,"truth_conditions","irrelevant","feathers","generic",1,"red",30,"False","noobs"
"453",15,6810,"truth_conditions","irrelevant","legs","generic",2,"pink",10,"False","feps"
"454",15,6793,"truth_conditions","bare","fur","generic",3,"silver",70,"True","morseths"
"455",15,6151,"truth_conditions","irrelevant","tails","generic",4,"green",90,"True","trufts"
"456",15,10097,"truth_conditions","distinct","legs","generic",5,"silver",30,"False","ackles"
"457",15,7202,"truth_conditions","bare","ears","generic",6,"blue",50,"False","cheebas"
"458",15,7888,"truth_conditions","distinct","ears","generic",7,"pink",50,"False","elleps"
"459",15,6457,"truth_conditions","bare","stripes","generic",8,"gold",30,"False","daiths"
"460",15,7297,"truth_conditions","distinct","teeth","generic",9,"green",70,"True","zoovs"
"461",15,4949,"truth_conditions","irrelevant","ears","generic",10,"orange",90,"True","kazzes"
"462",15,5126,"truth_conditions","irrelevant","scales","generic",11,"yellow",70,"True","dorbs"
"463",15,6326,"truth_conditions","irrelevant","shells","generic",12,"purple",10,"False","javs"
"464",15,4857,"truth_conditions","distinct","shells","generic",13,"orange",50,"False","luzaks"
"465",15,5555,"truth_conditions","irrelevant","stripes","generic",14,"silver",50,"False","frams"
"466",15,4319,"truth_conditions","bare","tails","generic",15,"orange",10,"False","zorbs"
"467",15,8030,"truth_conditions","distinct","spots","generic",16,"red",90,"True","sapers"
"468",15,5585,"truth_conditions","distinct","feathers","generic",17,"gold",10,"False","plovs"
"469",15,4159,"truth_conditions","bare","spots","generic",18,"copper",90,"True","glippets"
"470",15,5162,"truth_conditions","irrelevant","teeth","generic",19,"blue",30,"False","thups"
"471",15,5376,"truth_conditions","bare","teeth","generic",20,"pink",50,"False","krivels"
"472",15,5184,"truth_conditions","distinct","tails","generic",21,"purple",90,"True","taifels"
"473",15,4577,"truth_conditions","bare","scales","generic",22,"red",90,"True","blins"
"474",15,4055,"truth_conditions","bare","legs","generic",23,"yellow",30,"False","ludinos"
"475",15,9145,"truth_conditions","distinct","fur","generic",24,"yellow",10,"False","ollers"
"476",15,3936,"truth_conditions","bare","shells","generic",25,"green",10,"False","moxes"
"477",15,4610,"truth_conditions","distinct","stripes","generic",26,"copper",70,"True","mooks"
"478",15,7202,"truth_conditions","distinct","scales","generic",27,"blue",30,"False","reesles"
"479",15,3478,"truth_conditions","bare","feathers","generic",28,"purple",70,"True","lorches"
"480",15,7980,"truth_conditions","irrelevant","fur","generic",29,"copper",50,"False","kweps"
"481",16,32486,"truth_conditions","distinct","fur","generic",0,"yellow",50,"True","ollers"
"482",16,7199,"truth_conditions","irrelevant","fur","generic",1,"copper",50,"True","kweps"
"483",16,4590,"truth_conditions","bare","legs","generic",2,"yellow",90,"True","ludinos"
"484",16,5455,"truth_conditions","distinct","shells","generic",3,"orange",70,"True","luzaks"
"485",16,4292,"truth_conditions","distinct","legs","generic",4,"silver",90,"True","ackles"
"486",16,5169,"truth_conditions","irrelevant","scales","generic",5,"yellow",10,"False","dorbs"
"487",16,5077,"truth_conditions","irrelevant","spots","generic",6,"gold",90,"True","stups"
"488",16,4095,"truth_conditions","distinct","stripes","generic",7,"copper",50,"True","mooks"
"489",16,4535,"truth_conditions","distinct","tails","generic",8,"purple",90,"True","taifels"
"490",16,4207,"truth_conditions","irrelevant","teeth","generic",9,"blue",70,"True","thups"
"491",16,3332,"truth_conditions","bare","stripes","generic",10,"gold",30,"False","daiths"
"492",16,3781,"truth_conditions","irrelevant","legs","generic",11,"pink",30,"False","feps"
"493",16,3602,"truth_conditions","bare","tails","generic",12,"orange",70,"True","zorbs"
"494",16,4278,"truth_conditions","distinct","scales","generic",13,"blue",30,"False","reesles"
"495",16,3519,"truth_conditions","bare","fur","generic",14,"silver",50,"True","morseths"
"496",16,2943,"truth_conditions","bare","shells","generic",15,"green",50,"True","moxes"
"497",16,4249,"truth_conditions","irrelevant","ears","generic",16,"orange",70,"True","kazzes"
"498",16,2957,"truth_conditions","bare","ears","generic",17,"blue",70,"True","cheebas"
"499",16,4480,"truth_conditions","irrelevant","stripes","generic",18,"silver",90,"True","frams"
"500",16,4054,"truth_conditions","distinct","ears","generic",19,"pink",10,"False","elleps"
"501",16,12010,"truth_conditions","distinct","feathers","generic",20,"gold",30,"False","plovs"
"502",16,6428,"truth_conditions","irrelevant","tails","generic",21,"green",10,"False","trufts"
"503",16,5950,"truth_conditions","bare","scales","generic",22,"red",30,"False","blins"
"504",16,2383,"truth_conditions","bare","teeth","generic",23,"pink",90,"True","krivels"
"505",16,4399,"truth_conditions","irrelevant","feathers","generic",24,"red",30,"False","noobs"
"506",16,8779,"truth_conditions","bare","spots","generic",25,"copper",10,"False","glippets"
"507",16,3540,"truth_conditions","distinct","spots","generic",26,"red",10,"False","sapers"
"508",16,2271,"truth_conditions","irrelevant","shells","generic",27,"purple",50,"True","javs"
"509",16,2797,"truth_conditions","bare","feathers","generic",28,"purple",10,"False","lorches"
"510",16,3173,"truth_conditions","distinct","teeth","generic",29,"green",70,"True","zoovs"
"511",17,9825,"truth_conditions","distinct","legs","generic",0,"silver",10,"True","ackles"
"512",17,9592,"truth_conditions","distinct","spots","generic",1,"red",70,"False","sapers"
"513",17,7287,"truth_conditions","irrelevant","teeth","generic",2,"blue",70,"True","thups"
"514",17,6731,"truth_conditions","irrelevant","shells","generic",3,"purple",90,"True","javs"
"515",17,4638,"truth_conditions","irrelevant","scales","generic",4,"yellow",50,"False","dorbs"
"516",17,10351,"truth_conditions","distinct","ears","generic",5,"pink",50,"False","elleps"
"517",17,8391,"truth_conditions","distinct","teeth","generic",6,"green",10,"False","zoovs"
"518",17,5488,"truth_conditions","bare","legs","generic",7,"yellow",30,"True","ludinos"
"519",17,7481,"truth_conditions","irrelevant","tails","generic",8,"green",30,"False","trufts"
"520",17,5248,"truth_conditions","irrelevant","legs","generic",9,"pink",90,"True","feps"
"521",17,3937,"truth_conditions","bare","fur","generic",10,"silver",50,"True","morseths"
"522",17,4857,"truth_conditions","irrelevant","spots","generic",11,"gold",50,"False","stups"
"523",17,3032,"truth_conditions","distinct","fur","generic",12,"yellow",70,"True","ollers"
"524",17,3561,"truth_conditions","irrelevant","stripes","generic",13,"silver",10,"False","frams"
"525",17,2279,"truth_conditions","bare","tails","generic",14,"orange",30,"True","zorbs"
"526",17,2953,"truth_conditions","bare","stripes","generic",15,"gold",10,"True","daiths"
"527",17,5343,"truth_conditions","irrelevant","ears","generic",16,"orange",10,"False","kazzes"
"528",17,4872,"truth_conditions","distinct","tails","generic",17,"purple",30,"True","taifels"
"529",17,3761,"truth_conditions","bare","shells","generic",18,"green",70,"True","moxes"
"530",17,2560,"truth_conditions","bare","teeth","generic",19,"pink",10,"True","krivels"
"531",17,4697,"truth_conditions","distinct","shells","generic",20,"orange",50,"True","luzaks"
"532",17,2720,"truth_conditions","bare","spots","generic",21,"copper",50,"True","glippets"
"533",17,4640,"truth_conditions","distinct","feathers","generic",22,"gold",90,"True","plovs"
"534",17,5393,"truth_conditions","irrelevant","feathers","generic",23,"red",30,"False","noobs"
"535",17,2648,"truth_conditions","bare","scales","generic",24,"red",70,"True","blins"
"536",17,1561,"truth_conditions","bare","feathers","generic",25,"purple",90,"True","lorches"
"537",17,3216,"truth_conditions","irrelevant","fur","generic",26,"copper",70,"False","kweps"
"538",17,2184,"truth_conditions","distinct","scales","generic",27,"blue",90,"True","reesles"
"539",17,4665,"truth_conditions","distinct","stripes","generic",28,"copper",30,"False","mooks"
"540",17,1832,"truth_conditions","bare","ears","generic",29,"blue",90,"True","cheebas"
"541",18,39158,"truth_conditions","distinct","teeth","generic",0,"green",10,"True","zoovs"
"542",18,12000,"truth_conditions","irrelevant","tails","generic",1,"green",70,"True","trufts"
"543",18,12064,"truth_conditions","irrelevant","scales","generic",2,"yellow",10,"True","dorbs"
"544",18,7885,"truth_conditions","distinct","shells","generic",3,"orange",70,"True","luzaks"
"545",18,6367,"truth_conditions","bare","spots","generic",4,"copper",90,"True","glippets"
"546",18,9551,"truth_conditions","distinct","spots","generic",5,"red",70,"True","sapers"
"547",18,7590,"truth_conditions","bare","ears","generic",6,"blue",50,"True","cheebas"
"548",18,8908,"truth_conditions","bare","legs","generic",7,"yellow",50,"True","ludinos"
"549",18,5733,"truth_conditions","bare","scales","generic",8,"red",90,"True","blins"
"550",18,6524,"truth_conditions","bare","shells","generic",9,"green",10,"True","moxes"
"551",18,7244,"truth_conditions","distinct","feathers","generic",10,"gold",30,"True","plovs"
"552",18,5031,"truth_conditions","irrelevant","teeth","generic",11,"blue",50,"True","thups"
"553",18,5467,"truth_conditions","bare","feathers","generic",12,"purple",30,"True","lorches"
"554",18,5182,"truth_conditions","bare","tails","generic",13,"orange",10,"True","zorbs"
"555",18,6100,"truth_conditions","bare","fur","generic",14,"silver",30,"True","morseths"
"556",18,5133,"truth_conditions","distinct","stripes","generic",15,"copper",90,"True","mooks"
"557",18,6900,"truth_conditions","irrelevant","feathers","generic",16,"red",30,"True","noobs"
"558",18,6933,"truth_conditions","distinct","scales","generic",17,"blue",50,"True","reesles"
"559",18,4734,"truth_conditions","bare","teeth","generic",18,"pink",70,"True","krivels"
"560",18,5547,"truth_conditions","distinct","fur","generic",19,"yellow",90,"True","ollers"
"561",18,6304,"truth_conditions","distinct","legs","generic",20,"silver",50,"True","ackles"
"562",18,4936,"truth_conditions","bare","stripes","generic",21,"gold",70,"True","daiths"
"563",18,4930,"truth_conditions","distinct","ears","generic",22,"pink",30,"True","elleps"
"564",18,5830,"truth_conditions","irrelevant","spots","generic",23,"gold",90,"True","stups"
"565",18,5565,"truth_conditions","irrelevant","shells","generic",24,"purple",70,"True","javs"
"566",18,7436,"truth_conditions","irrelevant","legs","generic",25,"pink",50,"True","feps"
"567",18,5486,"truth_conditions","distinct","tails","generic",26,"purple",10,"True","taifels"
"568",18,11609,"truth_conditions","irrelevant","fur","generic",27,"copper",10,"True","kweps"
"569",18,7019,"truth_conditions","irrelevant","stripes","generic",28,"silver",90,"True","frams"
"570",18,6333,"truth_conditions","irrelevant","ears","generic",29,"orange",30,"True","kazzes"
"571",19,15793,"truth_conditions","bare","tails","generic",0,"orange",50,"True","zorbs"
"572",19,12535,"truth_conditions","irrelevant","legs","generic",1,"pink",30,"True","feps"
"573",19,10703,"truth_conditions","bare","ears","generic",2,"blue",70,"True","cheebas"
"574",19,12744,"truth_conditions","bare","teeth","generic",3,"pink",30,"True","krivels"
"575",19,16408,"truth_conditions","distinct","stripes","generic",4,"copper",10,"False","mooks"
"576",19,10032,"truth_conditions","bare","shells","generic",5,"green",10,"False","moxes"
"577",19,12390,"truth_conditions","distinct","legs","generic",6,"silver",30,"True","ackles"
"578",19,13672,"truth_conditions","irrelevant","fur","generic",7,"copper",10,"False","kweps"
"579",19,11344,"truth_conditions","irrelevant","teeth","generic",8,"blue",70,"True","thups"
"580",19,44832,"truth_conditions","irrelevant","tails","generic",9,"green",90,"True","trufts"
"581",19,4217,"truth_conditions","distinct","teeth","generic",10,"green",90,"True","zoovs"
"582",19,5767,"truth_conditions","bare","spots","generic",11,"copper",10,"False","glippets"
"583",19,3608,"truth_conditions","bare","feathers","generic",12,"purple",50,"True","lorches"
"584",19,6608,"truth_conditions","irrelevant","spots","generic",13,"gold",90,"True","stups"
"585",19,7064,"truth_conditions","irrelevant","feathers","generic",14,"red",50,"True","noobs"
"586",19,4414,"truth_conditions","distinct","spots","generic",15,"red",10,"False","sapers"
"587",19,7816,"truth_conditions","distinct","fur","generic",16,"yellow",70,"True","ollers"
"588",19,5840,"truth_conditions","bare","stripes","generic",17,"gold",90,"True","daiths"
"589",19,7767,"truth_conditions","irrelevant","shells","generic",18,"purple",70,"True","javs"
"590",19,9128,"truth_conditions","distinct","scales","generic",19,"blue",50,"True","reesles"
"591",19,6520,"truth_conditions","distinct","feathers","generic",20,"gold",70,"True","plovs"
"592",19,5017,"truth_conditions","irrelevant","stripes","generic",21,"silver",30,"True","frams"
"593",19,6232,"truth_conditions","bare","legs","generic",22,"yellow",30,"True","ludinos"
"594",19,6344,"truth_conditions","distinct","shells","generic",23,"orange",90,"True","luzaks"
"595",19,10152,"truth_conditions","distinct","ears","generic",24,"pink",30,"True","elleps"
"596",19,4233,"truth_conditions","bare","fur","generic",25,"silver",70,"True","morseths"
"597",19,7487,"truth_conditions","irrelevant","scales","generic",26,"yellow",10,"False","dorbs"
"598",19,2808,"truth_conditions","bare","scales","generic",27,"red",90,"True","blins"
"599",19,4287,"truth_conditions","irrelevant","ears","generic",28,"orange",50,"True","kazzes"
"600",19,7168,"truth_conditions","distinct","tails","generic",29,"purple",50,"True","taifels"
"601",20,14951,"truth_conditions","bare","tails","generic",0,"orange",90,"False","zorbs"
"602",20,8147,"truth_conditions","bare","feathers","generic",1,"purple",30,"True","lorches"
"603",20,8690,"truth_conditions","irrelevant","scales","generic",2,"yellow",70,"True","dorbs"
"604",20,15593,"truth_conditions","distinct","teeth","generic",3,"green",10,"True","zoovs"
"605",20,9007,"truth_conditions","irrelevant","tails","generic",4,"green",50,"True","trufts"
"606",20,5937,"truth_conditions","bare","stripes","generic",5,"gold",30,"True","daiths"
"607",20,10036,"truth_conditions","bare","scales","generic",6,"red",10,"True","blins"
"608",20,6781,"truth_conditions","bare","ears","generic",7,"blue",70,"True","cheebas"
"609",20,27523,"truth_conditions","irrelevant","legs","generic",8,"pink",30,"True","feps"
"610",20,7161,"truth_conditions","irrelevant","teeth","generic",9,"blue",50,"True","thups"
"611",20,18949,"truth_conditions","irrelevant","feathers","generic",10,"red",10,"True","noobs"
"612",20,9931,"truth_conditions","distinct","shells","generic",11,"orange",30,"True","luzaks"
"613",20,9702,"truth_conditions","irrelevant","stripes","generic",12,"silver",90,"True","frams"
"614",20,6438,"truth_conditions","bare","legs","generic",13,"yellow",10,"True","ludinos"
"615",20,5190,"truth_conditions","bare","shells","generic",14,"green",50,"True","moxes"
"616",20,11704,"truth_conditions","distinct","spots","generic",15,"red",50,"True","sapers"
"617",20,8197,"truth_conditions","distinct","ears","generic",16,"pink",10,"True","elleps"
"618",20,10883,"truth_conditions","irrelevant","fur","generic",17,"copper",10,"True","kweps"
"619",20,19068,"truth_conditions","distinct","scales","generic",18,"blue",70,"True","reesles"
"620",20,10314,"truth_conditions","distinct","feathers","generic",19,"gold",50,"True","plovs"
"621",20,13533,"truth_conditions","irrelevant","shells","generic",20,"purple",90,"True","javs"
"622",20,5073,"truth_conditions","bare","fur","generic",21,"silver",50,"True","morseths"
"623",20,11558,"truth_conditions","distinct","stripes","generic",22,"copper",90,"True","mooks"
"624",20,9269,"truth_conditions","irrelevant","spots","generic",23,"gold",70,"True","stups"
"625",20,11952,"truth_conditions","irrelevant","ears","generic",24,"orange",30,"True","kazzes"
"626",20,9280,"truth_conditions","distinct","legs","generic",25,"silver",30,"True","ackles"
"627",20,8116,"truth_conditions","bare","spots","generic",26,"copper",70,"True","glippets"
"628",20,10181,"truth_conditions","bare","teeth","generic",27,"pink",90,"True","krivels"
"629",20,11013,"truth_conditions","distinct","fur","generic",28,"yellow",90,"True","ollers"
"630",20,8655,"truth_conditions","distinct","tails","generic",29,"purple",70,"True","taifels"
"631",21,15712,"truth_conditions","irrelevant","scales","generic",0,"yellow",10,"True","dorbs"
"632",21,3694,"truth_conditions","distinct","scales","generic",1,"blue",70,"False","reesles"
"633",21,8701,"truth_conditions","distinct","legs","generic",2,"silver",90,"True","ackles"
"634",21,7621,"truth_conditions","bare","stripes","generic",3,"gold",90,"True","daiths"
"635",21,7363,"truth_conditions","distinct","spots","generic",4,"red",50,"False","sapers"
"636",21,5606,"truth_conditions","distinct","ears","generic",5,"pink",30,"False","elleps"
"637",21,6396,"truth_conditions","irrelevant","teeth","generic",6,"blue",70,"True","thups"
"638",21,3925,"truth_conditions","irrelevant","tails","generic",7,"green",30,"False","trufts"
"639",21,4817,"truth_conditions","irrelevant","stripes","generic",8,"silver",90,"True","frams"
"640",21,4167,"truth_conditions","distinct","shells","generic",9,"orange",10,"False","luzaks"
"641",21,3299,"truth_conditions","irrelevant","feathers","generic",10,"red",90,"True","noobs"
"642",21,3850,"truth_conditions","bare","fur","generic",11,"silver",70,"True","morseths"
"643",21,3132,"truth_conditions","bare","legs","generic",12,"yellow",30,"False","ludinos"
"644",21,3009,"truth_conditions","bare","ears","generic",13,"blue",30,"False","cheebas"
"645",21,2956,"truth_conditions","bare","teeth","generic",14,"pink",10,"False","krivels"
"646",21,5478,"truth_conditions","irrelevant","legs","generic",15,"pink",50,"True","feps"
"647",21,3494,"truth_conditions","irrelevant","ears","generic",16,"orange",30,"False","kazzes"
"648",21,4922,"truth_conditions","bare","spots","generic",17,"copper",10,"False","glippets"
"649",21,4553,"truth_conditions","bare","shells","generic",18,"green",90,"True","moxes"
"650",21,2707,"truth_conditions","bare","tails","generic",19,"orange",70,"True","zorbs"
"651",21,7412,"truth_conditions","irrelevant","shells","generic",20,"purple",50,"True","javs"
"652",21,3387,"truth_conditions","bare","scales","generic",21,"red",50,"True","blins"
"653",21,5485,"truth_conditions","irrelevant","spots","generic",22,"gold",70,"True","stups"
"654",21,3955,"truth_conditions","distinct","fur","generic",23,"yellow",90,"True","ollers"
"655",21,3986,"truth_conditions","irrelevant","fur","generic",24,"copper",10,"False","kweps"
"656",21,4647,"truth_conditions","distinct","teeth","generic",25,"green",10,"False","zoovs"
"657",21,4587,"truth_conditions","distinct","feathers","generic",26,"gold",30,"False","plovs"
"658",21,5620,"truth_conditions","bare","feathers","generic",27,"purple",50,"True","lorches"
"659",21,9109,"truth_conditions","distinct","stripes","generic",28,"copper",70,"True","mooks"
"660",21,5366,"truth_conditions","distinct","tails","generic",29,"purple",50,"True","taifels"
"661",22,19778,"truth_conditions","irrelevant","spots","generic",0,"gold",50,"True","stups"
"662",22,18561,"truth_conditions","distinct","spots","generic",1,"red",90,"True","sapers"
"663",22,14068,"truth_conditions","distinct","stripes","generic",2,"copper",50,"True","mooks"
"664",22,16764,"truth_conditions","distinct","shells","generic",3,"orange",30,"True","luzaks"
"665",22,9079,"truth_conditions","bare","spots","generic",4,"copper",50,"True","glippets"
"666",22,22370,"truth_conditions","distinct","ears","generic",5,"pink",10,"True","elleps"
"667",22,9217,"truth_conditions","irrelevant","feathers","generic",6,"red",50,"True","noobs"
"668",22,10561,"truth_conditions","bare","tails","generic",7,"orange",30,"True","zorbs"
"669",22,12169,"truth_conditions","irrelevant","fur","generic",8,"copper",70,"True","kweps"
"670",22,5543,"truth_conditions","bare","teeth","generic",9,"pink",90,"True","krivels"
"671",22,9373,"truth_conditions","irrelevant","legs","generic",10,"pink",30,"True","feps"
"672",22,6114,"truth_conditions","irrelevant","scales","generic",11,"yellow",90,"True","dorbs"
"673",22,4956,"truth_conditions","irrelevant","stripes","generic",12,"silver",90,"True","frams"
"674",22,8704,"truth_conditions","distinct","fur","generic",13,"yellow",70,"True","ollers"
"675",22,5631,"truth_conditions","irrelevant","ears","generic",14,"orange",70,"True","kazzes"
"676",22,5726,"truth_conditions","distinct","teeth","generic",15,"green",90,"True","zoovs"
"677",22,7013,"truth_conditions","distinct","feathers","generic",16,"gold",70,"True","plovs"
"678",22,18939,"truth_conditions","irrelevant","shells","generic",17,"purple",10,"False","javs"
"679",22,4678,"truth_conditions","bare","fur","generic",18,"silver",90,"True","morseths"
"680",22,8412,"truth_conditions","irrelevant","teeth","generic",19,"blue",30,"True","thups"
"681",22,4782,"truth_conditions","bare","legs","generic",20,"yellow",10,"False","ludinos"
"682",22,8285,"truth_conditions","distinct","legs","generic",21,"silver",10,"True","ackles"
"683",22,3895,"truth_conditions","bare","stripes","generic",22,"gold",70,"True","daiths"
"684",22,5111,"truth_conditions","distinct","scales","generic",23,"blue",50,"True","reesles"
"685",22,4239,"truth_conditions","bare","ears","generic",24,"blue",10,"False","cheebas"
"686",22,4509,"truth_conditions","bare","feathers","generic",25,"purple",50,"True","lorches"
"687",22,9731,"truth_conditions","bare","shells","generic",26,"green",30,"True","moxes"
"688",22,7309,"truth_conditions","irrelevant","tails","generic",27,"green",10,"False","trufts"
"689",22,4800,"truth_conditions","bare","scales","generic",28,"red",70,"True","blins"
"690",22,6093,"truth_conditions","distinct","tails","generic",29,"purple",30,"True","taifels"
"691",23,28313,"truth_conditions","bare","teeth","generic",0,"pink",70,"False","krivels"
"692",23,11373,"truth_conditions","bare","ears","generic",1,"blue",10,"False","cheebas"
"693",23,6994,"truth_conditions","bare","feathers","generic",2,"purple",50,"False","lorches"
"694",23,8501,"truth_conditions","distinct","tails","generic",3,"purple",50,"True","taifels"
"695",23,10161,"truth_conditions","bare","stripes","generic",4,"gold",30,"False","daiths"
"696",23,5012,"truth_conditions","bare","scales","generic",5,"red",90,"True","blins"
"697",23,7368,"truth_conditions","distinct","feathers","generic",6,"gold",30,"False","plovs"
"698",23,6212,"truth_conditions","distinct","stripes","generic",7,"copper",30,"True","mooks"
"699",23,14203,"truth_conditions","distinct","scales","generic",8,"blue",70,"True","reesles"
"700",23,10557,"truth_conditions","bare","shells","generic",9,"green",50,"False","moxes"
"701",23,6676,"truth_conditions","irrelevant","fur","generic",10,"copper",70,"True","kweps"
"702",23,6763,"truth_conditions","irrelevant","teeth","generic",11,"blue",30,"False","thups"
"703",23,3999,"truth_conditions","distinct","shells","generic",12,"orange",70,"True","luzaks"
"704",23,6231,"truth_conditions","distinct","fur","generic",13,"yellow",90,"True","ollers"
"705",23,24222,"truth_conditions","distinct","spots","generic",14,"red",10,"True","sapers"
"706",23,5955,"truth_conditions","irrelevant","scales","generic",15,"yellow",50,"False","dorbs"
"707",23,5898,"truth_conditions","irrelevant","tails","generic",16,"green",10,"False","trufts"
"708",23,4340,"truth_conditions","bare","legs","generic",17,"yellow",90,"True","ludinos"
"709",23,6186,"truth_conditions","bare","spots","generic",18,"copper",70,"True","glippets"
"710",23,7254,"truth_conditions","irrelevant","ears","generic",19,"orange",90,"True","kazzes"
"711",23,7017,"truth_conditions","distinct","ears","generic",20,"pink",90,"True","elleps"
"712",23,3199,"truth_conditions","irrelevant","feathers","generic",21,"red",50,"False","noobs"
"713",23,28790,"truth_conditions","distinct","legs","generic",22,"silver",10,"False","ackles"
"714",23,34147,"truth_conditions","irrelevant","spots","generic",23,"gold",10,"False","stups"
"715",23,9878,"truth_conditions","bare","tails","generic",24,"orange",30,"False","zorbs"
"716",23,27490,"truth_conditions","irrelevant","legs","generic",25,"pink",30,"False","feps"
"717",23,6183,"truth_conditions","distinct","teeth","generic",26,"green",50,"True","zoovs"
"718",23,5134,"truth_conditions","irrelevant","stripes","generic",27,"silver",90,"True","frams"
"719",23,12064,"truth_conditions","irrelevant","shells","generic",28,"purple",70,"False","javs"
"720",23,6993,"truth_conditions","bare","fur","generic",29,"silver",10,"False","morseths"
"721",24,14260,"truth_conditions","bare","tails","generic",0,"orange",50,"False","zorbs"
"722",24,9078,"truth_conditions","irrelevant","tails","generic",1,"green",30,"False","trufts"
"723",24,10270,"truth_conditions","distinct","spots","generic",2,"red",10,"True","sapers"
"724",24,9759,"truth_conditions","bare","feathers","generic",3,"purple",70,"False","lorches"
"725",24,8759,"truth_conditions","irrelevant","shells","generic",4,"purple",10,"False","javs"
"726",24,9279,"truth_conditions","irrelevant","legs","generic",5,"pink",90,"True","feps"
"727",24,8863,"truth_conditions","distinct","teeth","generic",6,"green",50,"True","zoovs"
"728",24,16703,"truth_conditions","irrelevant","fur","generic",7,"copper",70,"True","kweps"
"729",24,8916,"truth_conditions","distinct","feathers","generic",8,"gold",50,"True","plovs"
"730",24,7187,"truth_conditions","bare","fur","generic",9,"silver",10,"True","morseths"
"731",24,7774,"truth_conditions","bare","stripes","generic",10,"gold",10,"False","daiths"
"732",24,9367,"truth_conditions","distinct","fur","generic",11,"yellow",30,"True","ollers"
"733",24,9312,"truth_conditions","distinct","stripes","generic",12,"copper",30,"True","mooks"
"734",24,7406,"truth_conditions","irrelevant","feathers","generic",13,"red",30,"True","noobs"
"735",24,8687,"truth_conditions","bare","legs","generic",14,"yellow",70,"True","ludinos"
"736",24,10596,"truth_conditions","distinct","shells","generic",15,"orange",10,"True","luzaks"
"737",24,5483,"truth_conditions","bare","ears","generic",16,"blue",90,"True","cheebas"
"738",24,5742,"truth_conditions","distinct","legs","generic",17,"silver",90,"True","ackles"
"739",24,12672,"truth_conditions","distinct","tails","generic",18,"purple",90,"True","taifels"
"740",24,9719,"truth_conditions","irrelevant","scales","generic",19,"yellow",90,"True","dorbs"
"741",24,8847,"truth_conditions","distinct","scales","generic",20,"blue",70,"True","reesles"
"742",24,6079,"truth_conditions","bare","scales","generic",21,"red",50,"True","blins"
"743",24,5855,"truth_conditions","bare","spots","generic",22,"copper",30,"True","glippets"
"744",24,10083,"truth_conditions","irrelevant","stripes","generic",23,"silver",50,"True","frams"
"745",24,5723,"truth_conditions","distinct","ears","generic",24,"pink",70,"True","elleps"
"746",24,6366,"truth_conditions","irrelevant","ears","generic",25,"orange",50,"True","kazzes"
"747",24,7687,"truth_conditions","irrelevant","spots","generic",26,"gold",70,"True","stups"
"748",24,10208,"truth_conditions","irrelevant","teeth","generic",27,"blue",10,"False","thups"
"749",24,5663,"truth_conditions","bare","teeth","generic",28,"pink",90,"True","krivels"
"750",24,9526,"truth_conditions","bare","shells","generic",29,"green",30,"True","moxes"
"751",25,6101,"truth_conditions","irrelevant","stripes","generic",0,"silver",30,"True","frams"
"752",25,8506,"truth_conditions","distinct","tails","generic",1,"purple",10,"False","taifels"
"753",25,6261,"truth_conditions","distinct","fur","generic",2,"yellow",30,"False","ollers"
"754",25,3904,"truth_conditions","irrelevant","spots","generic",3,"gold",70,"True","stups"
"755",25,2843,"truth_conditions","bare","fur","generic",4,"silver",50,"True","morseths"
"756",25,2463,"truth_conditions","irrelevant","ears","generic",5,"orange",50,"True","kazzes"
"757",25,1717,"truth_conditions","bare","teeth","generic",6,"pink",10,"False","krivels"
"758",25,2099,"truth_conditions","bare","stripes","generic",7,"gold",30,"False","daiths"
"759",25,2317,"truth_conditions","distinct","spots","generic",8,"red",50,"True","sapers"
"760",25,1831,"truth_conditions","distinct","teeth","generic",9,"green",10,"False","zoovs"
"761",25,2070,"truth_conditions","bare","ears","generic",10,"blue",30,"False","cheebas"
"762",25,1464,"truth_conditions","irrelevant","legs","generic",11,"pink",30,"False","feps"
"763",25,1943,"truth_conditions","distinct","feathers","generic",12,"gold",50,"True","plovs"
"764",25,2817,"truth_conditions","irrelevant","teeth","generic",13,"blue",10,"False","thups"
"765",25,3079,"truth_conditions","bare","legs","generic",14,"yellow",70,"True","ludinos"
"766",25,1457,"truth_conditions","bare","shells","generic",15,"green",90,"True","moxes"
"767",25,1702,"truth_conditions","irrelevant","scales","generic",16,"yellow",10,"False","dorbs"
"768",25,1387,"truth_conditions","irrelevant","feathers","generic",17,"red",90,"True","noobs"
"769",25,1293,"truth_conditions","bare","scales","generic",18,"red",90,"True","blins"
"770",25,1207,"truth_conditions","irrelevant","fur","generic",19,"copper",70,"True","kweps"
"771",25,1431,"truth_conditions","irrelevant","tails","generic",20,"green",50,"True","trufts"
"772",25,2202,"truth_conditions","bare","spots","generic",21,"copper",50,"False","glippets"
"773",25,1020,"truth_conditions","distinct","shells","generic",22,"orange",90,"True","luzaks"
"774",25,1662,"truth_conditions","distinct","scales","generic",23,"blue",30,"False","reesles"
"775",25,1654,"truth_conditions","bare","feathers","generic",24,"purple",10,"False","lorches"
"776",25,1470,"truth_conditions","irrelevant","shells","generic",25,"purple",90,"False","javs"
"777",25,1508,"truth_conditions","bare","tails","generic",26,"orange",70,"False","zorbs"
"778",25,1032,"truth_conditions","distinct","stripes","generic",27,"copper",70,"True","mooks"
"779",25,824,"truth_conditions","distinct","legs","generic",28,"silver",90,"True","ackles"
"780",25,902,"truth_conditions","distinct","ears","generic",29,"pink",70,"True","elleps"
"781",26,20914,"truth_conditions","distinct","tails","generic",0,"purple",10,"False","taifels"
"782",26,7758,"truth_conditions","irrelevant","stripes","generic",1,"silver",10,"False","frams"
"783",26,15138,"truth_conditions","irrelevant","legs","generic",2,"pink",70,"False","feps"
"784",26,3642,"truth_conditions","bare","legs","generic",3,"yellow",30,"False","ludinos"
"785",26,6878,"truth_conditions","distinct","stripes","generic",4,"copper",50,"False","mooks"
"786",26,4551,"truth_conditions","bare","shells","generic",5,"green",10,"False","moxes"
"787",26,7199,"truth_conditions","distinct","feathers","generic",6,"gold",70,"False","plovs"
"788",26,8349,"truth_conditions","distinct","fur","generic",7,"yellow",30,"False","ollers"
"789",26,3825,"truth_conditions","bare","scales","generic",8,"red",30,"False","blins"
"790",26,2877,"truth_conditions","bare","ears","generic",9,"blue",70,"False","cheebas"
"791",26,5943,"truth_conditions","bare","tails","generic",10,"orange",90,"False","zorbs"
"792",26,2735,"truth_conditions","bare","feathers","generic",11,"purple",10,"False","lorches"
"793",26,11481,"truth_conditions","irrelevant","feathers","generic",12,"red",50,"False","noobs"
"794",26,7258,"truth_conditions","distinct","shells","generic",13,"orange",30,"False","luzaks"
"795",26,4642,"truth_conditions","bare","stripes","generic",14,"gold",90,"False","daiths"
"796",26,4360,"truth_conditions","distinct","scales","generic",15,"blue",10,"False","reesles"
"797",26,5300,"truth_conditions","irrelevant","spots","generic",16,"gold",30,"False","stups"
"798",26,2801,"truth_conditions","bare","spots","generic",17,"copper",50,"False","glippets"
"799",26,5160,"truth_conditions","irrelevant","teeth","generic",18,"blue",50,"False","thups"
"800",26,8210,"truth_conditions","distinct","legs","generic",19,"silver",90,"False","ackles"
"801",26,7578,"truth_conditions","irrelevant","tails","generic",20,"green",70,"False","trufts"
"802",26,8902,"truth_conditions","distinct","teeth","generic",21,"green",90,"False","zoovs"
"803",26,3398,"truth_conditions","irrelevant","ears","generic",22,"orange",30,"False","kazzes"
"804",26,3047,"truth_conditions","irrelevant","scales","generic",23,"yellow",10,"False","dorbs"
"805",26,4487,"truth_conditions","irrelevant","shells","generic",24,"purple",90,"False","javs"
"806",26,2472,"truth_conditions","distinct","spots","generic",25,"red",70,"False","sapers"
"807",26,3165,"truth_conditions","bare","fur","generic",26,"silver",50,"False","morseths"
"808",26,2279,"truth_conditions","bare","teeth","generic",27,"pink",70,"False","krivels"
"809",26,7351,"truth_conditions","distinct","ears","generic",28,"pink",50,"False","elleps"
"810",26,3384,"truth_conditions","irrelevant","fur","generic",29,"copper",90,"False","kweps"
"811",27,7995,"truth_conditions","irrelevant","teeth","generic",0,"blue",10,"False","thups"
"812",27,5771,"truth_conditions","irrelevant","legs","generic",1,"pink",90,"True","feps"
"813",27,5232,"truth_conditions","distinct","shells","generic",2,"orange",70,"True","luzaks"
"814",27,7340,"truth_conditions","distinct","ears","generic",3,"pink",30,"False","elleps"
"815",27,5265,"truth_conditions","bare","scales","generic",4,"red",10,"False","blins"
"816",27,3842,"truth_conditions","bare","feathers","generic",5,"purple",50,"True","lorches"
"817",27,1787,"truth_conditions","bare","ears","generic",6,"blue",90,"True","cheebas"
"818",27,1832,"truth_conditions","bare","fur","generic",7,"silver",90,"True","morseths"
"819",27,6210,"truth_conditions","distinct","fur","generic",8,"yellow",50,"True","ollers"
"820",27,2866,"truth_conditions","distinct","feathers","generic",9,"gold",90,"True","plovs"
"821",27,2137,"truth_conditions","bare","spots","generic",10,"copper",70,"True","glippets"
"822",27,2089,"truth_conditions","irrelevant","shells","generic",11,"purple",30,"False","javs"
"823",27,5408,"truth_conditions","distinct","spots","generic",12,"red",50,"True","sapers"
"824",27,3660,"truth_conditions","bare","stripes","generic",13,"gold",50,"False","daiths"
"825",27,2803,"truth_conditions","distinct","teeth","generic",14,"green",70,"True","zoovs"
"826",27,1466,"truth_conditions","bare","legs","generic",15,"yellow",30,"False","ludinos"
"827",27,2088,"truth_conditions","distinct","legs","generic",16,"silver",30,"False","ackles"
"828",27,1668,"truth_conditions","distinct","stripes","generic",17,"copper",10,"False","mooks"
"829",27,5892,"truth_conditions","irrelevant","scales","generic",18,"yellow",50,"True","dorbs"
"830",27,2508,"truth_conditions","irrelevant","fur","generic",19,"copper",90,"True","kweps"
"831",27,3837,"truth_conditions","irrelevant","stripes","generic",20,"silver",70,"True","frams"
"832",27,3774,"truth_conditions","irrelevant","tails","generic",21,"green",70,"True","trufts"
"833",27,2662,"truth_conditions","irrelevant","ears","generic",22,"orange",50,"True","kazzes"
"834",27,1698,"truth_conditions","bare","tails","generic",23,"orange",30,"False","zorbs"
"835",27,2053,"truth_conditions","distinct","scales","generic",24,"blue",90,"True","reesles"
"836",27,1433,"truth_conditions","irrelevant","spots","generic",25,"gold",30,"False","stups"
"837",27,1388,"truth_conditions","distinct","tails","generic",26,"purple",10,"False","taifels"
"838",27,1719,"truth_conditions","irrelevant","feathers","generic",27,"red",10,"False","noobs"
"839",27,1560,"truth_conditions","bare","teeth","generic",28,"pink",70,"True","krivels"
"840",27,1323,"truth_conditions","bare","shells","generic",29,"green",10,"False","moxes"
"841",28,44638,"truth_conditions","irrelevant","ears","generic",0,"orange",70,"False","kazzes"
"842",28,59360,"truth_conditions","bare","spots","generic",1,"copper",10,"True","glippets"
"843",28,30771,"truth_conditions","distinct","fur","generic",2,"yellow",90,"False","ollers"
"844",28,8289,"truth_conditions","bare","fur","generic",3,"silver",70,"False","morseths"
"845",28,8671,"truth_conditions","bare","feathers","generic",4,"purple",50,"False","lorches"
"846",28,6172,"truth_conditions","bare","teeth","generic",5,"pink",90,"False","krivels"
"847",28,11223,"truth_conditions","distinct","scales","generic",6,"blue",50,"False","reesles"
"848",28,6336,"truth_conditions","bare","legs","generic",7,"yellow",30,"False","ludinos"
"849",28,15703,"truth_conditions","irrelevant","fur","generic",8,"copper",90,"False","kweps"
"850",28,15866,"truth_conditions","irrelevant","teeth","generic",9,"blue",90,"False","thups"
"851",28,15787,"truth_conditions","distinct","spots","generic",10,"red",30,"False","sapers"
"852",28,11832,"truth_conditions","distinct","tails","generic",11,"purple",30,"False","taifels"
"853",28,9061,"truth_conditions","bare","ears","generic",12,"blue",70,"False","cheebas"
"854",28,6417,"truth_conditions","bare","scales","generic",13,"red",90,"False","blins"
"855",28,23064,"truth_conditions","irrelevant","scales","generic",14,"yellow",10,"False","dorbs"
"856",28,5754,"truth_conditions","bare","tails","generic",15,"orange",10,"False","zorbs"
"857",28,16385,"truth_conditions","bare","shells","generic",16,"green",30,"False","moxes"
"858",28,12231,"truth_conditions","distinct","stripes","generic",17,"copper",10,"False","mooks"
"859",28,8432,"truth_conditions","bare","stripes","generic",18,"gold",50,"False","daiths"
"860",28,14151,"truth_conditions","distinct","shells","generic",19,"orange",70,"False","luzaks"
"861",28,6900,"truth_conditions","distinct","teeth","generic",20,"green",70,"False","zoovs"
"862",28,13648,"truth_conditions","distinct","legs","generic",21,"silver",10,"False","ackles"
"863",28,10080,"truth_conditions","irrelevant","tails","generic",22,"green",30,"False","trufts"
"864",28,12615,"truth_conditions","irrelevant","spots","generic",23,"gold",50,"False","stups"
"865",28,37225,"truth_conditions","distinct","feathers","generic",24,"gold",50,"False","plovs"
"866",28,6932,"truth_conditions","irrelevant","feathers","generic",25,"red",30,"False","noobs"
"867",28,11071,"truth_conditions","distinct","ears","generic",26,"pink",90,"False","elleps"
"868",28,12128,"truth_conditions","irrelevant","shells","generic",27,"purple",10,"False","javs"
"869",28,7841,"truth_conditions","irrelevant","stripes","generic",28,"silver",70,"False","frams"
"870",28,17611,"truth_conditions","irrelevant","legs","generic",29,"pink",50,"False","feps"
"871",29,14587,"truth_conditions","irrelevant","shells","generic",0,"purple",90,"True","javs"
"872",29,8935,"truth_conditions","bare","teeth","generic",1,"pink",10,"False","krivels"
"873",29,10448,"truth_conditions","distinct","tails","generic",2,"purple",10,"True","taifels"
"874",29,3735,"truth_conditions","bare","fur","generic",3,"silver",10,"False","morseths"
"875",29,6794,"truth_conditions","irrelevant","spots","generic",4,"gold",30,"True","stups"
"876",29,75842,"truth_conditions","bare","shells","generic",5,"green",90,"False","moxes"
"877",29,8151,"truth_conditions","distinct","shells","generic",6,"orange",50,"True","luzaks"
"878",29,325725,"truth_conditions","distinct","legs","generic",7,"silver",90,"False","ackles"
"879",29,10232,"truth_conditions","irrelevant","legs","generic",8,"pink",70,"False","feps"
"880",29,7280,"truth_conditions","bare","legs","generic",9,"yellow",50,"False","ludinos"
"881",29,21551,"truth_conditions","irrelevant","stripes","generic",10,"silver",50,"False","frams"
"882",29,11461,"truth_conditions","bare","tails","generic",11,"orange",90,"False","zorbs"
"883",29,20360,"truth_conditions","irrelevant","teeth","generic",12,"blue",70,"False","thups"
"884",29,8343,"truth_conditions","distinct","teeth","generic",13,"green",70,"False","zoovs"
"885",29,12855,"truth_conditions","bare","ears","generic",14,"blue",30,"False","cheebas"
"886",29,5369,"truth_conditions","irrelevant","ears","generic",15,"orange",10,"False","kazzes"
"887",29,5512,"truth_conditions","irrelevant","feathers","generic",16,"red",90,"False","noobs"
"888",29,7100,"truth_conditions","bare","stripes","generic",17,"gold",70,"False","daiths"
"889",29,3536,"truth_conditions","irrelevant","fur","generic",18,"copper",50,"False","kweps"
"890",29,7025,"truth_conditions","distinct","stripes","generic",19,"copper",50,"False","mooks"
"891",29,32888,"truth_conditions","bare","spots","generic",20,"copper",50,"False","glippets"
"892",29,3888,"truth_conditions","distinct","ears","generic",21,"pink",10,"False","elleps"
"893",29,4975,"truth_conditions","distinct","feathers","generic",22,"gold",30,"False","plovs"
"894",29,2791,"truth_conditions","bare","feathers","generic",23,"purple",70,"False","lorches"
"895",29,5268,"truth_conditions","irrelevant","scales","generic",24,"yellow",30,"False","dorbs"
"896",29,5975,"truth_conditions","distinct","fur","generic",25,"yellow",90,"False","ollers"
"897",29,2840,"truth_conditions","bare","scales","generic",26,"red",30,"False","blins"
"898",29,36663,"truth_conditions","irrelevant","tails","generic",27,"green",10,"False","trufts"
"899",29,2704,"truth_conditions","distinct","spots","generic",28,"red",30,"False","sapers"
"900",29,2753,"truth_conditions","distinct","scales","generic",29,"blue",70,"False","reesles"
"901",30,17519,"truth_conditions","distinct","spots","generic",0,"red",30,"False","sapers"
"902",30,21107,"truth_conditions","irrelevant","tails","generic",1,"green",70,"True","trufts"
"903",30,11384,"truth_conditions","distinct","teeth","generic",2,"green",10,"False","zoovs"
"904",30,11283,"truth_conditions","irrelevant","scales","generic",3,"yellow",30,"False","dorbs"
"905",30,7426,"truth_conditions","irrelevant","ears","generic",4,"orange",50,"True","kazzes"
"906",30,4074,"truth_conditions","bare","scales","generic",5,"red",50,"True","blins"
"907",30,4833,"truth_conditions","irrelevant","feathers","generic",6,"red",50,"True","noobs"
"908",30,6348,"truth_conditions","distinct","scales","generic",7,"blue",50,"True","reesles"
"909",30,4341,"truth_conditions","distinct","fur","generic",8,"yellow",70,"True","ollers"
"910",30,4725,"truth_conditions","irrelevant","teeth","generic",9,"blue",30,"False","thups"
"911",30,3964,"truth_conditions","bare","feathers","generic",10,"purple",30,"False","lorches"
"912",30,5280,"truth_conditions","distinct","shells","generic",11,"orange",30,"False","luzaks"
"913",30,4446,"truth_conditions","distinct","ears","generic",12,"pink",70,"True","elleps"
"914",30,3401,"truth_conditions","irrelevant","stripes","generic",13,"silver",10,"False","frams"
"915",30,3559,"truth_conditions","bare","shells","generic",14,"green",10,"False","moxes"
"916",30,2786,"truth_conditions","bare","stripes","generic",15,"gold",70,"True","daiths"
"917",30,3706,"truth_conditions","distinct","feathers","generic",16,"gold",10,"False","plovs"
"918",30,4607,"truth_conditions","bare","teeth","generic",17,"pink",90,"True","krivels"
"919",30,3936,"truth_conditions","irrelevant","spots","generic",18,"gold",10,"False","stups"
"920",30,4063,"truth_conditions","bare","spots","generic",19,"copper",50,"True","glippets"
"921",30,4083,"truth_conditions","bare","legs","generic",20,"yellow",90,"True","ludinos"
"922",30,5132,"truth_conditions","distinct","tails","generic",21,"purple",90,"True","taifels"
"923",30,4080,"truth_conditions","distinct","legs","generic",22,"silver",50,"True","ackles"
"924",30,4554,"truth_conditions","irrelevant","fur","generic",23,"copper",90,"True","kweps"
"925",30,5289,"truth_conditions","irrelevant","shells","generic",24,"purple",70,"True","javs"
"926",30,3732,"truth_conditions","irrelevant","legs","generic",25,"pink",90,"True","feps"
"927",30,4230,"truth_conditions","bare","fur","generic",26,"silver",10,"False","morseths"
"928",30,2638,"truth_conditions","bare","ears","generic",27,"blue",30,"False","cheebas"
"929",30,2786,"truth_conditions","bare","tails","generic",28,"orange",70,"True","zorbs"
"930",30,6624,"truth_conditions","distinct","stripes","generic",29,"copper",90,"True","mooks"
"931",31,29263,"truth_conditions","distinct","stripes","generic",0,"copper",10,"False","mooks"
"932",31,9302,"truth_conditions","bare","legs","generic",1,"yellow",50,"True","ludinos"
"933",31,8289,"truth_conditions","irrelevant","fur","generic",2,"copper",70,"True","kweps"
"934",31,5893,"truth_conditions","bare","tails","generic",3,"orange",30,"False","zorbs"
"935",31,5394,"truth_conditions","bare","spots","generic",4,"copper",90,"True","glippets"
"936",31,8021,"truth_conditions","irrelevant","scales","generic",5,"yellow",30,"False","dorbs"
"937",31,4226,"truth_conditions","irrelevant","stripes","generic",6,"silver",30,"False","frams"
"938",31,5764,"truth_conditions","distinct","legs","generic",7,"silver",90,"True","ackles"
"939",31,4523,"truth_conditions","bare","feathers","generic",8,"purple",70,"True","lorches"
"940",31,2645,"truth_conditions","bare","scales","generic",9,"red",30,"False","blins"
"941",31,2535,"truth_conditions","bare","stripes","generic",10,"gold",10,"False","daiths"
"942",31,4156,"truth_conditions","distinct","spots","generic",11,"red",10,"False","sapers"
"943",31,5088,"truth_conditions","irrelevant","legs","generic",12,"pink",70,"True","feps"
"944",31,7175,"truth_conditions","distinct","teeth","generic",13,"green",50,"True","zoovs"
"945",31,2366,"truth_conditions","bare","teeth","generic",14,"pink",10,"False","krivels"
"946",31,8521,"truth_conditions","distinct","scales","generic",15,"blue",30,"False","reesles"
"947",31,6840,"truth_conditions","irrelevant","spots","generic",16,"gold",10,"False","stups"
"948",31,2750,"truth_conditions","irrelevant","teeth","generic",17,"blue",90,"True","thups"
"949",31,4393,"truth_conditions","distinct","shells","generic",18,"orange",30,"False","luzaks"
"950",31,3966,"truth_conditions","bare","ears","generic",19,"blue",50,"True","cheebas"
"951",31,4034,"truth_conditions","distinct","tails","generic",20,"purple",70,"True","taifels"
"952",31,4705,"truth_conditions","irrelevant","ears","generic",21,"orange",90,"True","kazzes"
"953",31,3565,"truth_conditions","bare","fur","generic",22,"silver",70,"True","morseths"
"954",31,2044,"truth_conditions","bare","shells","generic",23,"green",90,"True","moxes"
"955",31,3420,"truth_conditions","irrelevant","shells","generic",24,"purple",50,"True","javs"
"956",31,3472,"truth_conditions","distinct","ears","generic",25,"pink",50,"True","elleps"
"957",31,2360,"truth_conditions","irrelevant","feathers","generic",26,"red",10,"False","noobs"
"958",31,3265,"truth_conditions","irrelevant","tails","generic",27,"green",50,"True","trufts"
"959",31,4609,"truth_conditions","distinct","fur","generic",28,"yellow",90,"True","ollers"
"960",31,3695,"truth_conditions","distinct","feathers","generic",29,"gold",70,"True","plovs"
"961",32,26759,"truth_conditions","irrelevant","stripes","generic",0,"silver",10,"True","frams"
"962",32,9031,"truth_conditions","irrelevant","tails","generic",1,"green",90,"True","trufts"
"963",32,9593,"truth_conditions","bare","spots","generic",2,"copper",50,"True","glippets"
"964",32,12296,"truth_conditions","irrelevant","feathers","generic",3,"red",30,"True","noobs"
"965",32,7643,"truth_conditions","bare","stripes","generic",4,"gold",30,"True","daiths"
"966",32,5140,"truth_conditions","bare","shells","generic",5,"green",90,"True","moxes"
"967",32,5866,"truth_conditions","bare","tails","generic",6,"orange",70,"True","zorbs"
"968",32,4882,"truth_conditions","bare","legs","generic",7,"yellow",30,"True","ludinos"
"969",32,9354,"truth_conditions","distinct","ears","generic",8,"pink",90,"True","elleps"
"970",32,7511,"truth_conditions","irrelevant","scales","generic",9,"yellow",30,"True","dorbs"
"971",32,13887,"truth_conditions","distinct","tails","generic",10,"purple",70,"True","taifels"
"972",32,5244,"truth_conditions","irrelevant","teeth","generic",11,"blue",70,"True","thups"
"973",32,3717,"truth_conditions","bare","teeth","generic",12,"pink",90,"True","krivels"
"974",32,3105,"truth_conditions","bare","ears","generic",13,"blue",10,"True","cheebas"
"975",32,3706,"truth_conditions","bare","fur","generic",14,"silver",50,"True","morseths"
"976",32,8088,"truth_conditions","irrelevant","shells","generic",15,"purple",10,"True","javs"
"977",32,5086,"truth_conditions","distinct","legs","generic",16,"silver",30,"True","ackles"
"978",32,6263,"truth_conditions","distinct","scales","generic",17,"blue",10,"True","reesles"
"979",32,4476,"truth_conditions","bare","scales","generic",18,"red",10,"True","blins"
"980",32,6154,"truth_conditions","distinct","shells","generic",19,"orange",50,"True","luzaks"
"981",32,7169,"truth_conditions","irrelevant","spots","generic",20,"gold",90,"True","stups"
"982",32,3311,"truth_conditions","distinct","stripes","generic",21,"copper",70,"True","mooks"
"983",32,3786,"truth_conditions","distinct","teeth","generic",22,"green",50,"True","zoovs"
"984",32,2673,"truth_conditions","distinct","spots","generic",23,"red",10,"True","sapers"
"985",32,5252,"truth_conditions","irrelevant","ears","generic",24,"orange",50,"True","kazzes"
"986",32,3141,"truth_conditions","irrelevant","fur","generic",25,"copper",70,"True","kweps"
"987",32,4420,"truth_conditions","distinct","feathers","generic",26,"gold",90,"True","plovs"
"988",32,7684,"truth_conditions","irrelevant","legs","generic",27,"pink",50,"True","feps"
"989",32,3864,"truth_conditions","bare","feathers","generic",28,"purple",70,"True","lorches"
"990",32,3609,"truth_conditions","distinct","fur","generic",29,"yellow",30,"True","ollers"
"991",33,13466,"truth_conditions","bare","scales","generic",0,"red",70,"True","blins"
"992",33,12066,"truth_conditions","distinct","teeth","generic",1,"green",10,"False","zoovs"
"993",33,7534,"truth_conditions","bare","feathers","generic",2,"purple",30,"False","lorches"
"994",33,5714,"truth_conditions","bare","ears","generic",3,"blue",90,"True","cheebas"
"995",33,7986,"truth_conditions","irrelevant","tails","generic",4,"green",90,"True","trufts"
"996",33,6168,"truth_conditions","bare","fur","generic",5,"silver",50,"True","morseths"
"997",33,8080,"truth_conditions","irrelevant","stripes","generic",6,"silver",70,"True","frams"
"998",33,8851,"truth_conditions","distinct","legs","generic",7,"silver",50,"True","ackles"
"999",33,7200,"truth_conditions","irrelevant","feathers","generic",8,"red",90,"True","noobs"
"1000",33,7466,"truth_conditions","irrelevant","ears","generic",9,"orange",30,"False","kazzes"
"1001",33,6665,"truth_conditions","distinct","stripes","generic",10,"copper",70,"True","mooks"
"1002",33,7334,"truth_conditions","distinct","scales","generic",11,"blue",90,"True","reesles"
"1003",33,5802,"truth_conditions","bare","legs","generic",12,"yellow",10,"False","ludinos"
"1004",33,4997,"truth_conditions","bare","teeth","generic",13,"pink",70,"True","krivels"
"1005",33,6785,"truth_conditions","bare","stripes","generic",14,"gold",50,"True","daiths"
"1006",33,7715,"truth_conditions","distinct","fur","generic",15,"yellow",10,"False","ollers"
"1007",33,5066,"truth_conditions","bare","spots","generic",16,"copper",30,"False","glippets"
"1008",33,7123,"truth_conditions","distinct","tails","generic",17,"purple",70,"True","taifels"
"1009",33,5496,"truth_conditions","distinct","spots","generic",18,"red",30,"False","sapers"
"1010",33,6049,"truth_conditions","distinct","feathers","generic",19,"gold",90,"True","plovs"
"1011",33,9233,"truth_conditions","irrelevant","fur","generic",20,"copper",10,"False","kweps"
"1012",33,8236,"truth_conditions","distinct","shells","generic",21,"orange",30,"False","luzaks"
"1013",33,6046,"truth_conditions","irrelevant","spots","generic",22,"gold",50,"True","stups"
"1014",33,7068,"truth_conditions","irrelevant","shells","generic",23,"purple",70,"True","javs"
"1015",33,6666,"truth_conditions","irrelevant","teeth","generic",24,"blue",50,"True","thups"
"1016",33,7032,"truth_conditions","irrelevant","scales","generic",25,"yellow",10,"False","dorbs"
"1017",33,9850,"truth_conditions","distinct","ears","generic",26,"pink",50,"True","elleps"
"1018",33,5866,"truth_conditions","bare","shells","generic",27,"green",10,"False","moxes"
"1019",33,4451,"truth_conditions","bare","tails","generic",28,"orange",90,"True","zorbs"
"1020",33,7482,"truth_conditions","irrelevant","legs","generic",29,"pink",30,"False","feps"
"1021",34,3819,"truth_conditions","bare","ears","generic",0,"blue",10,"False","cheebas"
"1022",34,2043,"truth_conditions","irrelevant","spots","generic",1,"gold",30,"False","stups"
"1023",34,2264,"truth_conditions","bare","fur","generic",2,"silver",50,"True","morseths"
"1024",34,2142,"truth_conditions","irrelevant","fur","generic",3,"copper",50,"True","kweps"
"1025",34,1729,"truth_conditions","irrelevant","shells","generic",4,"purple",10,"False","javs"
"1026",34,1811,"truth_conditions","irrelevant","tails","generic",5,"green",50,"True","trufts"
"1027",34,1089,"truth_conditions","distinct","shells","generic",6,"orange",70,"True","luzaks"
"1028",34,2481,"truth_conditions","distinct","fur","generic",7,"yellow",10,"False","ollers"
"1029",34,2102,"truth_conditions","distinct","feathers","generic",8,"gold",50,"True","plovs"
"1030",34,1799,"truth_conditions","distinct","stripes","generic",9,"copper",90,"True","mooks"
"1031",34,1756,"truth_conditions","distinct","scales","generic",10,"blue",30,"False","reesles"
"1032",34,1272,"truth_conditions","irrelevant","ears","generic",11,"orange",90,"True","kazzes"
"1033",34,1447,"truth_conditions","bare","teeth","generic",12,"pink",30,"False","krivels"
"1034",34,1147,"truth_conditions","irrelevant","scales","generic",13,"yellow",30,"False","dorbs"
"1035",34,1109,"truth_conditions","irrelevant","feathers","generic",14,"red",10,"False","noobs"
"1036",34,1164,"truth_conditions","irrelevant","teeth","generic",15,"blue",70,"True","thups"
"1037",34,1108,"truth_conditions","bare","legs","generic",16,"yellow",90,"True","ludinos"
"1038",34,2824,"truth_conditions","distinct","legs","generic",17,"silver",30,"False","ackles"
"1039",34,1030,"truth_conditions","distinct","ears","generic",18,"pink",70,"True","elleps"
"1040",34,1102,"truth_conditions","irrelevant","legs","generic",19,"pink",70,"True","feps"
"1041",34,1812,"truth_conditions","distinct","teeth","generic",20,"green",90,"True","zoovs"
"1042",34,1812,"truth_conditions","bare","scales","generic",21,"red",70,"True","blins"
"1043",34,1378,"truth_conditions","bare","stripes","generic",22,"gold",90,"True","daiths"
"1044",34,4159,"truth_conditions","distinct","tails","generic",23,"purple",10,"False","taifels"
"1045",34,4699,"truth_conditions","bare","shells","generic",24,"green",30,"False","moxes"
"1046",34,1421,"truth_conditions","bare","spots","generic",25,"copper",70,"True","glippets"
"1047",34,1280,"truth_conditions","bare","tails","generic",26,"orange",50,"True","zorbs"
"1048",34,1405,"truth_conditions","bare","feathers","generic",27,"purple",10,"False","lorches"
"1049",34,2737,"truth_conditions","irrelevant","stripes","generic",28,"silver",90,"True","frams"
"1050",34,3134,"truth_conditions","distinct","spots","generic",29,"red",50,"True","sapers"
"1051",35,7474,"truth_conditions","bare","spots","generic",0,"copper",70,"True","glippets"
"1052",35,9048,"truth_conditions","irrelevant","stripes","generic",1,"silver",10,"True","frams"
"1053",35,7353,"truth_conditions","irrelevant","feathers","generic",2,"red",50,"True","noobs"
"1054",35,8778,"truth_conditions","distinct","fur","generic",3,"yellow",50,"True","ollers"
"1055",35,5197,"truth_conditions","irrelevant","legs","generic",4,"pink",30,"True","feps"
"1056",35,7667,"truth_conditions","distinct","legs","generic",5,"silver",70,"True","ackles"
"1057",35,3319,"truth_conditions","irrelevant","shells","generic",6,"purple",30,"True","javs"
"1058",35,6860,"truth_conditions","bare","legs","generic",7,"yellow",50,"True","ludinos"
"1059",35,2618,"truth_conditions","irrelevant","teeth","generic",8,"blue",90,"True","thups"
"1060",35,3174,"truth_conditions","distinct","shells","generic",9,"orange",90,"True","luzaks"
"1061",35,4866,"truth_conditions","distinct","spots","generic",10,"red",10,"True","sapers"
"1062",35,2616,"truth_conditions","distinct","scales","generic",11,"blue",30,"True","reesles"
"1063",35,2301,"truth_conditions","irrelevant","fur","generic",12,"copper",10,"True","kweps"
"1064",35,2237,"truth_conditions","distinct","ears","generic",13,"pink",50,"True","elleps"
"1065",35,2265,"truth_conditions","distinct","teeth","generic",14,"green",90,"True","zoovs"
"1066",35,2388,"truth_conditions","distinct","tails","generic",15,"purple",30,"True","taifels"
"1067",35,2345,"truth_conditions","irrelevant","tails","generic",16,"green",70,"True","trufts"
"1068",35,3318,"truth_conditions","bare","fur","generic",17,"silver",10,"True","morseths"
"1069",35,3040,"truth_conditions","distinct","stripes","generic",18,"copper",70,"True","mooks"
"1070",35,15545,"truth_conditions","irrelevant","spots","generic",19,"gold",90,"True","stups"
"1071",35,1772,"truth_conditions","distinct","feathers","generic",20,"gold",10,"True","plovs"
"1072",35,2157,"truth_conditions","bare","shells","generic",21,"green",50,"True","moxes"
"1073",35,2646,"truth_conditions","bare","feathers","generic",22,"purple",90,"True","lorches"
"1074",35,2112,"truth_conditions","bare","scales","generic",23,"red",30,"True","blins"
"1075",35,2475,"truth_conditions","irrelevant","scales","generic",24,"yellow",50,"True","dorbs"
"1076",35,1747,"truth_conditions","bare","stripes","generic",25,"gold",70,"True","daiths"
"1077",35,1980,"truth_conditions","bare","teeth","generic",26,"pink",30,"True","krivels"
"1078",35,1660,"truth_conditions","bare","ears","generic",27,"blue",90,"True","cheebas"
"1079",35,1755,"truth_conditions","irrelevant","ears","generic",28,"orange",70,"True","kazzes"
"1080",35,1456,"truth_conditions","bare","tails","generic",29,"orange",10,"True","zorbs"
"1081",36,7789,"truth_conditions","bare","ears","generic",0,"blue",70,"False","cheebas"
"1082",36,5322,"truth_conditions","distinct","feathers","generic",1,"gold",70,"True","plovs"
"1083",36,5102,"truth_conditions","distinct","scales","generic",2,"blue",30,"False","reesles"
"1084",36,7459,"truth_conditions","irrelevant","spots","generic",3,"gold",30,"False","stups"
"1085",36,4852,"truth_conditions","irrelevant","scales","generic",4,"yellow",50,"False","dorbs"
"1086",36,2773,"truth_conditions","bare","tails","generic",5,"orange",30,"False","zorbs"
"1087",36,2590,"truth_conditions","bare","shells","generic",6,"green",50,"False","moxes"
"1088",36,3854,"truth_conditions","bare","legs","generic",7,"yellow",50,"False","ludinos"
"1089",36,2094,"truth_conditions","bare","feathers","generic",8,"purple",70,"True","lorches"
"1090",36,3776,"truth_conditions","irrelevant","fur","generic",9,"copper",10,"False","kweps"
"1091",36,3886,"truth_conditions","distinct","spots","generic",10,"red",90,"True","sapers"
"1092",36,4818,"truth_conditions","distinct","ears","generic",11,"pink",30,"False","elleps"
"1093",36,2423,"truth_conditions","bare","stripes","generic",12,"gold",10,"False","daiths"
