workerid	rt	trial_type	stim_type	trial_num	stim_determiner	stim_color	stim_part	response	stim_category
0	12406	implied_prevalence	danger-distinct	0	generic	pink	teeth	100	krivels
0	3223	implied_prevalence	bare	1	generic	yellow	legs	100	ludinos
0	5478	implied_prevalence	bare	2	generic	green	teeth	100	zoovs
0	1751	implied_prevalence	bare	3	generic	purple	shells	100	javs
0	4705	implied_prevalence	danger-distinct	4	generic	silver	legs	100	ackles
0	5903	implied_prevalence	danger-distinct	5	generic	purple	feathers	100	lorches
0	2296	implied_prevalence	bare	6	generic	copper	spots	100	glippets
0	3983	implied_prevalence	danger-distinct	7	generic	gold	stripes	100	daiths
0	3343	implied_prevalence	danger-distinct	8	generic	green	shells	100	moxes
0	7007	implied_prevalence	nondistinctive	9	generic	red	spots	100	sapers
0	2918	implied_prevalence	nondistinctive	10	generic	red	feathers	100	noobs
0	3551	implied_prevalence	danger-distinct	11	generic	gold	spots	100	stups
0	3232	implied_prevalence	nondistinctive	12	generic	orange	tails	100	zorbs
0	3071	implied_prevalence	nondistinctive	13	generic	silver	stripes	100	frams
0	3128	implied_prevalence	nondistinctive	14	generic	copper	fur	100	kweps
0	1960	implied_prevalence	bare	15	generic	silver	fur	100	morseths
0	2552	implied_prevalence	nondistinctive	16	generic	pink	legs	100	feps
0	8231	implied_prevalence	danger-distinct	17	generic	orange	ears	100	kazzes
0	1792	implied_prevalence	bare	18	generic	green	tails	100	trufts
0	2616	implied_prevalence	nondistinctive	19	generic	red	scales	100	blins
0	4295	implied_prevalence	danger-distinct	20	generic	yellow	fur	100	ollers
0	2200	implied_prevalence	danger-distinct	21	generic	blue	scales	100	reesles
0	2745	implied_prevalence	nondistinctive	22	generic	orange	shells	100	luzaks
0	2982	implied_prevalence	nondistinctive	23	generic	blue	teeth	100	thups
0	3520	implied_prevalence	danger-distinct	24	generic	purple	tails	100	taifels
0	3688	implied_prevalence	nondistinctive	25	generic	pink	ears	100	elleps
0	2025	implied_prevalence	bare	26	generic	yellow	scales	100	dorbs
0	1704	implied_prevalence	bare	27	generic	gold	feathers	100	plovs
0	1384	implied_prevalence	bare	28	generic	blue	ears	100	cheebas
0	1696	implied_prevalence	bare	29	generic	copper	stripes	100	mooks
1	13885	implied_prevalence	danger-distinct	0	generic	copper	stripes	100	mooks
1	7279	implied_prevalence	danger-distinct	1	generic	orange	shells	100	luzaks
1	8575	implied_prevalence	nondistinctive	2	generic	pink	teeth	100	krivels
1	6055	implied_prevalence	bare	3	generic	gold	feathers	50	plovs
1	5312	implied_prevalence	nondistinctive	4	generic	purple	tails	50	taifels
1	5704	implied_prevalence	nondistinctive	5	generic	purple	feathers	50	lorches
1	3079	implied_prevalence	bare	6	generic	orange	ears	50	kazzes
1	6079	implied_prevalence	danger-distinct	7	generic	pink	ears	100	elleps
1	5615	implied_prevalence	nondistinctive	8	generic	blue	scales	50	reesles
1	3640	implied_prevalence	bare	9	generic	green	teeth	100	zoovs
1	3177	implied_prevalence	bare	10	generic	green	shells	100	moxes
1	2983	implied_prevalence	bare	11	generic	red	spots	50	sapers
1	6897	implied_prevalence	danger-distinct	12	generic	red	scales	100	blins
1	6551	implied_prevalence	danger-distinct	13	generic	orange	tails	100	zorbs
1	3368	implied_prevalence	bare	14	generic	silver	fur	100	morseths
1	4344	implied_prevalence	danger-distinct	15	generic	yellow	legs	100	ludinos
1	6720	implied_prevalence	nondistinctive	16	generic	copper	fur	100	kweps
1	4744	implied_prevalence	danger-distinct	17	generic	red	feathers	100	noobs
1	5296	implied_prevalence	nondistinctive	18	generic	blue	ears	100	cheebas
1	4663	implied_prevalence	nondistinctive	19	generic	silver	legs	100	ackles
1	3535	implied_prevalence	bare	20	generic	gold	stripes	100	daiths
1	20312	implied_prevalence	nondistinctive	21	generic	purple	shells	100	javs
1	5136	implied_prevalence	bare	22	generic	green	tails	100	trufts
1	5400	implied_prevalence	nondistinctive	23	generic	gold	spots	50	stups
1	13344	implied_prevalence	danger-distinct	24	generic	copper	spots	25	glippets
1	6680	implied_prevalence	danger-distinct	25	generic	yellow	fur	25	ollers
1	4375	implied_prevalence	danger-distinct	26	generic	blue	teeth	100	thups
1	2906	implied_prevalence	bare	27	generic	pink	legs	100	feps
1	5543	implied_prevalence	bare	28	generic	yellow	scales	50	dorbs
1	4273	implied_prevalence	nondistinctive	29	generic	silver	stripes	50	frams
2	14508	implied_prevalence	nondistinctive	0	generic	copper	stripes	40	mooks
2	6082	implied_prevalence	bare	1	generic	green	shells	100	moxes
2	5579	implied_prevalence	bare	2	generic	silver	fur	100	morseths
2	9868	implied_prevalence	danger-distinct	3	generic	pink	teeth	100	krivels
2	4871	implied_prevalence	bare	4	generic	gold	spots	100	stups
2	8408	implied_prevalence	nondistinctive	5	generic	gold	feathers	50	plovs
2	9927	implied_prevalence	danger-distinct	6	generic	silver	stripes	100	frams
2	6105	implied_prevalence	danger-distinct	7	generic	purple	shells	100	javs
2	8191	implied_prevalence	nondistinctive	8	generic	pink	ears	100	elleps
2	5758	implied_prevalence	bare	9	generic	gold	stripes	100	daiths
2	7360	implied_prevalence	nondistinctive	10	generic	orange	shells	100	luzaks
2	7039	implied_prevalence	nondistinctive	11	generic	copper	spots	100	glippets
2	7504	implied_prevalence	nondistinctive	12	generic	yellow	legs	100	ludinos
2	6959	implied_prevalence	danger-distinct	13	generic	red	scales	100	blins
2	4817	implied_prevalence	bare	14	generic	purple	feathers	100	lorches
2	5006	implied_prevalence	bare	15	generic	yellow	scales	100	dorbs
2	4423	implied_prevalence	nondistinctive	16	generic	green	tails	100	trufts
2	2184	implied_prevalence	danger-distinct	17	generic	orange	ears	100	kazzes
2	2328	implied_prevalence	bare	18	generic	pink	legs	100	feps
2	2319	implied_prevalence	bare	19	generic	purple	tails	100	taifels
2	4448	implied_prevalence	nondistinctive	20	generic	copper	fur	100	kweps
2	8976	implied_prevalence	danger-distinct	21	generic	red	spots	100	sapers
2	2771	implied_prevalence	danger-distinct	22	generic	red	feathers	100	noobs
2	3084	implied_prevalence	danger-distinct	23	generic	yellow	fur	100	ollers
2	4591	implied_prevalence	nondistinctive	24	generic	blue	scales	100	reesles
2	3152	implied_prevalence	danger-distinct	25	generic	orange	tails	100	zorbs
2	3383	implied_prevalence	danger-distinct	26	generic	silver	legs	100	ackles
2	6594	implied_prevalence	bare	27	generic	blue	ears	100	cheebas
2	3654	implied_prevalence	nondistinctive	28	generic	blue	teeth	100	thups
2	3775	implied_prevalence	bare	29	generic	green	teeth	100	zoovs
3	24336	implied_prevalence	danger-distinct	0	generic	silver	legs	100	ackles
3	12132	implied_prevalence	danger-distinct	1	generic	red	feathers	100	noobs
3	6085	implied_prevalence	danger-distinct	2	generic	yellow	fur	100	ollers
3	5582	implied_prevalence	bare	3	generic	gold	feathers	100	plovs
3	7628	implied_prevalence	nondistinctive	4	generic	green	shells	100	moxes
3	13078	implied_prevalence	nondistinctive	5	generic	copper	spots	100	glippets
3	5192	implied_prevalence	danger-distinct	6	generic	gold	spots	100	stups
3	5082	implied_prevalence	danger-distinct	7	generic	blue	ears	100	cheebas
3	7889	implied_prevalence	nondistinctive	8	generic	pink	teeth	100	krivels
3	5226	implied_prevalence	nondistinctive	9	generic	orange	tails	100	zorbs
3	4187	implied_prevalence	nondistinctive	10	generic	pink	legs	100	feps
3	4261	implied_prevalence	bare	11	generic	yellow	legs	100	ludinos
3	4749	implied_prevalence	nondistinctive	12	generic	copper	stripes	100	mooks
3	5099	implied_prevalence	bare	13	generic	silver	stripes	100	frams
3	4206	implied_prevalence	danger-distinct	14	generic	purple	tails	100	taifels
3	4443	implied_prevalence	nondistinctive	15	generic	purple	feathers	100	lorches
3	3777	implied_prevalence	bare	16	generic	orange	ears	100	kazzes
3	5868	implied_prevalence	danger-distinct	17	generic	orange	shells	100	luzaks
3	4278	implied_prevalence	danger-distinct	18	generic	green	teeth	100	zoovs
3	4159	implied_prevalence	danger-distinct	19	generic	blue	scales	100	reesles
3	4015	implied_prevalence	bare	20	generic	yellow	scales	100	dorbs
3	6444	implied_prevalence	nondistinctive	21	generic	red	scales	100	blins
3	4690	implied_prevalence	bare	22	generic	silver	fur	100	morseths
3	5701	implied_prevalence	danger-distinct	23	generic	gold	stripes	100	daiths
3	3809	implied_prevalence	bare	24	generic	red	spots	100	sapers
3	6338	implied_prevalence	nondistinctive	25	generic	copper	fur	100	kweps
3	4013	implied_prevalence	bare	26	generic	blue	teeth	100	thups
3	4385	implied_prevalence	bare	27	generic	purple	shells	100	javs
3	5687	implied_prevalence	nondistinctive	28	generic	pink	ears	100	elleps
3	4279	implied_prevalence	bare	29	generic	green	tails	100	trufts
4	34178	implied_prevalence	danger-distinct	0	generic	green	teeth	100	zoovs
4	34891	implied_prevalence	nondistinctive	1	generic	blue	teeth	40	thups
4	10928	implied_prevalence	bare	2	generic	pink	ears	100	elleps
4	11904	implied_prevalence	bare	3	generic	red	spots	50	sapers
4	21219	implied_prevalence	nondistinctive	4	generic	orange	tails	100	zorbs
4	20318	implied_prevalence	nondistinctive	5	generic	purple	shells	100	javs
4	8544	implied_prevalence	nondistinctive	6	generic	red	scales	100	blins
4	5644	implied_prevalence	bare	7	generic	pink	legs	100	feps
4	14646	implied_prevalence	danger-distinct	8	generic	yellow	legs	100	ludinos
4	11148	implied_prevalence	danger-distinct	9	generic	purple	tails	100	taifels
4	10567	implied_prevalence	bare	10	generic	red	feathers	50	noobs
4	9136	implied_prevalence	danger-distinct	11	generic	yellow	scales	100	dorbs
4	6604	implied_prevalence	bare	12	generic	green	tails	75	trufts
4	11826	implied_prevalence	danger-distinct	13	generic	gold	feathers	50	plovs
4	13067	implied_prevalence	danger-distinct	14	generic	yellow	fur	60	ollers
4	7984	implied_prevalence	nondistinctive	15	generic	silver	legs	100	ackles
4	4662	implied_prevalence	bare	16	generic	blue	scales	50	reesles
4	3372	implied_prevalence	bare	17	generic	silver	stripes	100	frams
4	10940	implied_prevalence	nondistinctive	18	generic	copper	stripes	50	mooks
4	10515	implied_prevalence	danger-distinct	19	generic	gold	stripes	70	daiths
4	10478	implied_prevalence	nondistinctive	20	generic	gold	spots	100	stups
4	4438	implied_prevalence	bare	21	generic	orange	shells	100	luzaks
4	7462	implied_prevalence	danger-distinct	22	generic	green	shells	100	moxes
4	4694	implied_prevalence	bare	23	generic	silver	fur	50	morseths
4	4060	implied_prevalence	bare	24	generic	pink	teeth	50	krivels
4	7744	implied_prevalence	danger-distinct	25	generic	copper	spots	100	glippets
4	5117	implied_prevalence	nondistinctive	26	generic	purple	feathers	100	lorches
4	8011	implied_prevalence	nondistinctive	27	generic	blue	ears	100	cheebas
4	5435	implied_prevalence	nondistinctive	28	generic	copper	fur	100	kweps
4	5244	implied_prevalence	danger-distinct	29	generic	orange	ears	100	kazzes
5	30648	implied_prevalence	danger-distinct	0	generic	yellow	legs	90	ludinos
5	7055	implied_prevalence	bare	1	generic	green	tails	100	trufts
5	8463	implied_prevalence	danger-distinct	2	generic	silver	fur	90	morseths
5	8224	implied_prevalence	nondistinctive	3	generic	blue	scales	95	reesles
5	8840	implied_prevalence	nondistinctive	4	generic	purple	tails	90	taifels
5	4024	implied_prevalence	bare	5	generic	gold	spots	100	stups
5	3336	implied_prevalence	bare	6	generic	green	shells	100	moxes
5	4872	implied_prevalence	danger-distinct	7	generic	orange	tails	90	zorbs
5	6832	implied_prevalence	bare	8	generic	pink	teeth	95	krivels
5	10536	implied_prevalence	danger-distinct	9	generic	red	spots	90	sapers
5	6127	implied_prevalence	danger-distinct	10	generic	red	feathers	90	noobs
5	31153	implied_prevalence	danger-distinct	11	generic	red	scales	90	blins
5	8552	implied_prevalence	bare	12	generic	yellow	scales	100	dorbs
5	3120	implied_prevalence	bare	13	generic	purple	feathers	100	lorches
5	4047	implied_prevalence	bare	14	generic	silver	stripes	100	frams
5	6008	implied_prevalence	nondistinctive	15	generic	copper	spots	90	glippets
5	3873	implied_prevalence	danger-distinct	16	generic	copper	stripes	95	mooks
5	3856	implied_prevalence	nondistinctive	17	generic	yellow	fur	95	ollers
5	2559	implied_prevalence	nondistinctive	18	generic	orange	shells	95	luzaks
5	2904	implied_prevalence	bare	19	generic	orange	ears	100	kazzes
5	3360	implied_prevalence	nondistinctive	20	generic	gold	feathers	90	plovs
5	7520	implied_prevalence	nondistinctive	21	generic	green	teeth	85	zoovs
5	3055	implied_prevalence	nondistinctive	22	generic	gold	stripes	90	daiths
5	6040	implied_prevalence	danger-distinct	23	generic	blue	teeth	90	thups
5	8521	implied_prevalence	bare	24	generic	copper	fur	90	kweps
5	18238	implied_prevalence	nondistinctive	25	generic	silver	legs	90	ackles
5	14411	implied_prevalence	danger-distinct	26	generic	purple	shells	90	javs
5	3934	implied_prevalence	danger-distinct	27	generic	blue	ears	80	cheebas
5	6144	implied_prevalence	bare	28	generic	pink	legs	95	feps
5	2598	implied_prevalence	nondistinctive	29	generic	pink	ears	90	elleps
6	19519	implied_prevalence	danger-distinct	0	generic	copper	spots	100	glippets
6	11581	implied_prevalence	nondistinctive	1	generic	blue	ears	100	cheebas
6	6756	implied_prevalence	bare	2	generic	orange	tails	100	zorbs
6	5785	implied_prevalence	bare	3	generic	gold	spots	100	stups
6	12956	implied_prevalence	danger-distinct	4	generic	silver	fur	100	morseths
6	9933	implied_prevalence	danger-distinct	5	generic	blue	teeth	100	thups
6	11756	implied_prevalence	nondistinctive	6	generic	purple	tails	100	taifels
6	14164	implied_prevalence	danger-distinct	7	generic	orange	shells	100	luzaks
6	6086	implied_prevalence	bare	8	generic	yellow	scales	100	dorbs
6	5715	implied_prevalence	bare	9	generic	gold	feathers	100	plovs
6	6502	implied_prevalence	nondistinctive	10	generic	yellow	fur	100	ollers
6	10744	implied_prevalence	danger-distinct	11	generic	silver	legs	100	ackles
6	12116	implied_prevalence	danger-distinct	12	generic	silver	stripes	100	frams
6	7189	implied_prevalence	bare	13	generic	yellow	legs	100	ludinos
6	9294	implied_prevalence	danger-distinct	14	generic	red	scales	100	blins
6	10270	implied_prevalence	nondistinctive	15	generic	purple	shells	100	javs
6	7110	implied_prevalence	danger-distinct	16	generic	green	tails	100	trufts
6	9900	implied_prevalence	nondistinctive	17	generic	pink	legs	100	feps
6	7583	implied_prevalence	bare	18	generic	copper	fur	100	kweps
6	5491	implied_prevalence	bare	19	generic	pink	ears	100	elleps
6	5140	implied_prevalence	bare	20	generic	green	teeth	100	zoovs
6	6008	implied_prevalence	bare	21	generic	green	shells	100	moxes
6	7090	implied_prevalence	nondistinctive	22	generic	copper	stripes	100	mooks
6	12049	implied_prevalence	nondistinctive	23	generic	purple	feathers	100	lorches
6	56382	implied_prevalence	nondistinctive	24	generic	pink	teeth	100	krivels
6	15390	implied_prevalence	danger-distinct	25	generic	orange	ears	50	kazzes
6	5591	implied_prevalence	bare	26	generic	gold	stripes	100	daiths
6	7572	implied_prevalence	danger-distinct	27	generic	red	feathers	100	noobs
6	8268	implied_prevalence	nondistinctive	28	generic	blue	scales	100	reesles
6	10294	implied_prevalence	nondistinctive	29	generic	red	spots	100	sapers
7	9751	implied_prevalence	bare	0	generic	green	teeth	92	zoovs
7	34551	implied_prevalence	nondistinctive	1	generic	pink	legs	86	feps
7	19159	implied_prevalence	danger-distinct	2	generic	gold	spots	94	stups
7	11112	implied_prevalence	nondistinctive	3	generic	red	spots	65	sapers
7	8363	implied_prevalence	nondistinctive	4	generic	red	scales	72	blins
7	10882	implied_prevalence	bare	5	generic	orange	tails	92	zorbs
7	21458	implied_prevalence	nondistinctive	6	generic	silver	stripes	72	frams
7	5517	implied_prevalence	bare	7	generic	copper	spots	85	glippets
7	63194	implied_prevalence	danger-distinct	8	generic	copper	fur	85	kweps
7	13330	implied_prevalence	danger-distinct	9	generic	copper	stripes	88	mooks
7	6157	implied_prevalence	nondistinctive	10	generic	blue	teeth	65	thups
7	5652	implied_prevalence	danger-distinct	11	generic	yellow	legs	87	ludinos
7	8525	implied_prevalence	danger-distinct	12	generic	purple	feathers	92	lorches
7	10423	implied_prevalence	nondistinctive	13	generic	green	tails	85	trufts
7	8833	implied_prevalence	danger-distinct	14	generic	orange	ears	90	kazzes
7	6701	implied_prevalence	danger-distinct	15	generic	purple	shells	92	javs
7	4990	implied_prevalence	bare	16	generic	red	feathers	86	noobs
7	25045	implied_prevalence	nondistinctive	17	generic	gold	feathers	45	plovs
7	12203	implied_prevalence	danger-distinct	18	generic	pink	teeth	85	krivels
7	14000	implied_prevalence	bare	19	generic	green	shells	65	moxes
7	12001	implied_prevalence	danger-distinct	20	generic	yellow	scales	85	dorbs
7	61031	implied_prevalence	bare	21	generic	yellow	fur	65	ollers
7	5173	implied_prevalence	bare	22	generic	gold	stripes	65	daiths
7	6361	implied_prevalence	bare	23	generic	blue	scales	85	reesles
7	7476	implied_prevalence	nondistinctive	24	generic	blue	ears	45	cheebas
7	4897	implied_prevalence	bare	25	generic	silver	legs	65	ackles
7	5621	implied_prevalence	nondistinctive	26	generic	silver	fur	85	morseths
7	9469	implied_prevalence	nondistinctive	27	generic	orange	shells	68	luzaks
7	15018	implied_prevalence	danger-distinct	28	generic	purple	tails	89	taifels
7	5899	implied_prevalence	bare	29	generic	pink	ears	45	elleps
8	32727	implied_prevalence	nondistinctive	0	generic	green	tails	10	trufts
8	9527	implied_prevalence	bare	1	generic	copper	fur	10	kweps
8	6848	implied_prevalence	bare	2	generic	copper	stripes	10	mooks
8	13785	implied_prevalence	nondistinctive	3	generic	silver	stripes	10	frams
8	9634	implied_prevalence	nondistinctive	4	generic	orange	shells	10	luzaks
8	5406	implied_prevalence	bare	5	generic	pink	legs	10	feps
8	3727	implied_prevalence	bare	6	generic	purple	shells	10	javs
8	5308	implied_prevalence	bare	7	generic	purple	feathers	10	lorches
8	6486	implied_prevalence	nondistinctive	8	generic	pink	teeth	5	krivels
8	8494	implied_prevalence	danger-distinct	9	generic	green	shells	2	moxes
8	5545	implied_prevalence	bare	10	generic	purple	tails	10	taifels
8	5229	implied_prevalence	nondistinctive	11	generic	silver	fur	5	morseths
8	4159	implied_prevalence	nondistinctive	12	generic	silver	legs	10	ackles
8	4549	implied_prevalence	nondistinctive	13	generic	gold	spots	5	stups
8	3635	implied_prevalence	nondistinctive	14	generic	gold	feathers	5	plovs
8	5051	implied_prevalence	danger-distinct	15	generic	yellow	legs	2	ludinos
8	2699	implied_prevalence	danger-distinct	16	generic	blue	ears	2	cheebas
8	4079	implied_prevalence	bare	17	generic	orange	ears	5	kazzes
8	3780	implied_prevalence	danger-distinct	18	generic	blue	teeth	2	thups
8	2538	implied_prevalence	danger-distinct	19	generic	orange	tails	2	zorbs
8	4104	implied_prevalence	bare	20	generic	green	teeth	5	zoovs
8	3964	implied_prevalence	danger-distinct	21	generic	yellow	fur	2	ollers
8	2476	implied_prevalence	danger-distinct	22	generic	red	spots	2	sapers
8	4752	implied_prevalence	danger-distinct	23	generic	yellow	scales	2	dorbs
8	3671	implied_prevalence	nondistinctive	24	generic	red	scales	5	blins
8	5917	implied_prevalence	bare	25	generic	copper	spots	5	glippets
8	5113	implied_prevalence	danger-distinct	26	generic	red	feathers	2	noobs
8	7645	implied_prevalence	bare	27	generic	blue	scales	5	reesles
8	5073	implied_prevalence	danger-distinct	28	generic	gold	stripes	2	daiths
8	2955	implied_prevalence	nondistinctive	29	generic	pink	ears	5	elleps
9	4583	implied_prevalence	bare	0	generic	gold	feathers	100	plovs
9	8072	implied_prevalence	nondistinctive	1	generic	red	spots	100	sapers
9	3495	implied_prevalence	bare	2	generic	green	teeth	100	zoovs
9	4687	implied_prevalence	danger-distinct	3	generic	green	tails	100	trufts
9	3368	implied_prevalence	danger-distinct	4	generic	pink	teeth	100	krivels
9	3201	implied_prevalence	bare	5	generic	silver	fur	100	morseths
9	5135	implied_prevalence	danger-distinct	6	generic	purple	shells	100	javs
9	3079	implied_prevalence	bare	7	generic	gold	spots	100	stups
9	3183	implied_prevalence	danger-distinct	8	generic	gold	stripes	100	daiths
9	2919	implied_prevalence	danger-distinct	9	generic	silver	legs	100	ackles
9	3217	implied_prevalence	bare	10	generic	orange	ears	100	kazzes
9	3616	implied_prevalence	nondistinctive	11	generic	green	shells	100	moxes
9	3720	implied_prevalence	bare	12	generic	pink	legs	100	feps
9	3703	implied_prevalence	danger-distinct	13	generic	pink	ears	100	elleps
9	1368	implied_prevalence	nondistinctive	14	generic	yellow	legs	100	ludinos
9	1520	implied_prevalence	bare	15	generic	orange	tails	100	zorbs
9	3449	implied_prevalence	danger-distinct	16	generic	yellow	scales	100	dorbs
9	2040	implied_prevalence	nondistinctive	17	generic	copper	fur	100	kweps
9	3671	implied_prevalence	nondistinctive	18	generic	silver	stripes	100	frams
9	1447	implied_prevalence	bare	19	generic	orange	shells	100	luzaks
9	1847	implied_prevalence	nondistinctive	20	generic	blue	ears	100	cheebas
9	1440	implied_prevalence	nondistinctive	21	generic	purple	feathers	100	lorches
9	1448	implied_prevalence	nondistinctive	22	generic	purple	tails	100	taifels
9	1857	implied_prevalence	bare	23	generic	red	scales	100	blins
9	2137	implied_prevalence	danger-distinct	24	generic	yellow	fur	100	ollers
9	1880	implied_prevalence	nondistinctive	25	generic	blue	scales	100	reesles
9	5648	implied_prevalence	nondistinctive	26	generic	blue	teeth	100	thups
9	1807	implied_prevalence	bare	27	generic	copper	stripes	100	mooks
9	1984	implied_prevalence	danger-distinct	28	generic	copper	spots	100	glippets
9	1552	implied_prevalence	danger-distinct	29	generic	red	feathers	100	noobs
10	17255	implied_prevalence	danger-distinct	0	generic	silver	fur	100	morseths
10	5191	implied_prevalence	bare	1	generic	gold	feathers	100	plovs
10	8344	implied_prevalence	nondistinctive	2	generic	copper	fur	100	kweps
10	7343	implied_prevalence	nondistinctive	3	generic	pink	ears	100	elleps
10	5129	implied_prevalence	bare	4	generic	yellow	scales	100	dorbs
10	6728	implied_prevalence	nondistinctive	5	generic	pink	teeth	100	krivels
10	6368	implied_prevalence	bare	6	generic	yellow	fur	100	ollers
10	9376	implied_prevalence	nondistinctive	7	generic	pink	legs	100	feps
10	9152	implied_prevalence	danger-distinct	8	generic	purple	feathers	100	lorches
10	7592	implied_prevalence	danger-distinct	9	generic	blue	scales	100	reesles
10	6840	implied_prevalence	nondistinctive	10	generic	red	spots	100	sapers
10	3624	implied_prevalence	bare	11	generic	purple	shells	100	javs
10	7360	implied_prevalence	danger-distinct	12	generic	copper	stripes	100	mooks
10	4448	implied_prevalence	bare	13	generic	blue	teeth	100	thups
10	5608	implied_prevalence	danger-distinct	14	generic	green	shells	100	moxes
10	6216	implied_prevalence	danger-distinct	15	generic	green	teeth	100	zoovs
10	6824	implied_prevalence	danger-distinct	16	generic	purple	tails	100	taifels
10	2983	implied_prevalence	bare	17	generic	orange	ears	100	kazzes
10	7383	implied_prevalence	danger-distinct	18	generic	gold	spots	100	stups
10	5447	implied_prevalence	nondistinctive	19	generic	orange	shells	100	luzaks
10	3424	implied_prevalence	bare	20	generic	silver	legs	100	ackles
10	6175	implied_prevalence	danger-distinct	21	generic	blue	ears	100	cheebas
10	3111	implied_prevalence	bare	22	generic	orange	tails	100	zorbs
10	5080	implied_prevalence	nondistinctive	23	generic	red	scales	100	blins
10	5840	implied_prevalence	nondistinctive	24	generic	gold	stripes	100	daiths
10	2472	implied_prevalence	bare	25	generic	silver	stripes	100	frams
10	7064	implied_prevalence	nondistinctive	26	generic	green	tails	100	trufts
10	7592	implied_prevalence	danger-distinct	27	generic	yellow	legs	100	ludinos
10	6112	implied_prevalence	nondistinctive	28	generic	red	feathers	100	noobs
10	3784	implied_prevalence	bare	29	generic	copper	spots	100	glippets
11	16491	implied_prevalence	nondistinctive	0	generic	copper	fur	100	kweps
11	5903	implied_prevalence	bare	1	generic	orange	ears	100	kazzes
11	14063	implied_prevalence	nondistinctive	2	generic	gold	stripes	100	daiths
11	4913	implied_prevalence	bare	3	generic	pink	teeth	100	krivels
11	4960	implied_prevalence	bare	4	generic	silver	fur	100	morseths
11	5006	implied_prevalence	bare	5	generic	purple	shells	100	javs
11	10320	implied_prevalence	danger-distinct	6	generic	orange	tails	100	zorbs
11	8648	implied_prevalence	nondistinctive	7	generic	gold	feathers	100	plovs
11	6753	implied_prevalence	danger-distinct	8	generic	blue	teeth	100	thups
11	7933	implied_prevalence	nondistinctive	9	generic	blue	ears	100	cheebas
11	5697	implied_prevalence	bare	10	generic	silver	stripes	100	frams
11	7829	implied_prevalence	nondistinctive	11	generic	copper	spots	100	glippets
11	4990	implied_prevalence	bare	12	generic	purple	tails	100	taifels
11	7363	implied_prevalence	danger-distinct	13	generic	blue	scales	100	reesles
11	7453	implied_prevalence	danger-distinct	14	generic	orange	shells	100	luzaks
11	4570	implied_prevalence	nondistinctive	15	generic	green	tails	100	trufts
11	5660	implied_prevalence	danger-distinct	16	generic	purple	feathers	100	lorches
11	10703	implied_prevalence	nondistinctive	17	generic	pink	legs	100	feps
11	3693	implied_prevalence	nondistinctive	18	generic	green	teeth	100	zoovs
11	7290	implied_prevalence	danger-distinct	19	generic	yellow	legs	100	ludinos
11	7223	implied_prevalence	danger-distinct	20	generic	gold	spots	100	stups
11	4070	implied_prevalence	danger-distinct	21	generic	copper	stripes	100	mooks
11	2676	implied_prevalence	danger-distinct	22	generic	pink	ears	100	elleps
11	3577	implied_prevalence	bare	23	generic	silver	legs	100	ackles
11	4050	implied_prevalence	bare	24	generic	red	feathers	100	noobs
11	5166	implied_prevalence	nondistinctive	25	generic	yellow	scales	100	dorbs
11	4207	implied_prevalence	bare	26	generic	red	spots	100	sapers
11	5766	implied_prevalence	danger-distinct	27	generic	yellow	fur	100	ollers
11	3917	implied_prevalence	bare	28	generic	red	scales	100	blins
11	3806	implied_prevalence	nondistinctive	29	generic	green	shells	100	moxes
12	17282	implied_prevalence	danger-distinct	0	generic	red	scales	50	blins
12	17700	implied_prevalence	nondistinctive	1	generic	copper	fur	100	kweps
12	6832	implied_prevalence	bare	2	generic	yellow	fur	100	ollers
12	6273	implied_prevalence	bare	3	generic	green	teeth	100	zoovs
12	10603	implied_prevalence	danger-distinct	4	generic	purple	tails	100	taifels
12	10979	implied_prevalence	nondistinctive	5	generic	orange	ears	100	kazzes
12	9153	implied_prevalence	danger-distinct	6	generic	pink	teeth	50	krivels
12	7838	implied_prevalence	nondistinctive	7	generic	green	tails	100	trufts
12	5730	implied_prevalence	bare	8	generic	yellow	legs	100	ludinos
12	4849	implied_prevalence	danger-distinct	9	generic	blue	ears	100	cheebas
12	5878	implied_prevalence	danger-distinct	10	generic	gold	feathers	100	plovs
12	4829	implied_prevalence	nondistinctive	11	generic	blue	scales	100	reesles
12	4742	implied_prevalence	danger-distinct	12	generic	pink	legs	100	feps
12	4217	implied_prevalence	danger-distinct	13	generic	purple	shells	100	javs
12	4034	implied_prevalence	nondistinctive	14	generic	red	spots	100	sapers
12	6823	implied_prevalence	danger-distinct	15	generic	silver	fur	100	morseths
12	6849	implied_prevalence	nondistinctive	16	generic	red	feathers	100	noobs
12	5812	implied_prevalence	danger-distinct	17	generic	copper	spots	100	glippets
12	3468	implied_prevalence	danger-distinct	18	generic	silver	stripes	100	frams
12	8415	implied_prevalence	bare	19	generic	orange	tails	100	zorbs
12	3561	implied_prevalence	bare	20	generic	purple	feathers	100	lorches
12	3369	implied_prevalence	bare	21	generic	green	shells	100	moxes
12	3411	implied_prevalence	bare	22	generic	gold	stripes	100	daiths
12	5624	implied_prevalence	nondistinctive	23	generic	blue	teeth	100	thups
12	3248	implied_prevalence	nondistinctive	24	generic	orange	shells	100	luzaks
12	3324	implied_prevalence	nondistinctive	25	generic	copper	stripes	100	mooks
12	4104	implied_prevalence	bare	26	generic	yellow	scales	100	dorbs
12	2881	implied_prevalence	bare	27	generic	gold	spots	100	stups
12	3869	implied_prevalence	nondistinctive	28	generic	silver	legs	100	ackles
12	4247	implied_prevalence	bare	29	generic	pink	ears	100	elleps
13	6870	implied_prevalence	bare	0	generic	red	feathers	100	noobs
13	3920	implied_prevalence	bare	1	generic	orange	tails	100	zorbs
13	3487	implied_prevalence	bare	2	generic	red	scales	95	blins
13	3241	implied_prevalence	bare	3	generic	copper	spots	100	glippets
13	9384	implied_prevalence	danger-distinct	4	generic	blue	scales	100	reesles
13	3344	implied_prevalence	bare	5	generic	gold	stripes	100	daiths
13	5943	implied_prevalence	nondistinctive	6	generic	purple	tails	100	taifels
13	4783	implied_prevalence	nondistinctive	7	generic	red	spots	100	sapers
13	4337	implied_prevalence	danger-distinct	8	generic	green	tails	100	trufts
13	3336	implied_prevalence	bare	9	generic	blue	ears	100	cheebas
13	5658	implied_prevalence	danger-distinct	10	generic	yellow	fur	100	ollers
13	4645	implied_prevalence	nondistinctive	11	generic	copper	stripes	100	mooks
13	6161	implied_prevalence	danger-distinct	12	generic	silver	stripes	100	frams
13	13183	implied_prevalence	nondistinctive	13	generic	silver	legs	75	ackles
13	3337	implied_prevalence	nondistinctive	14	generic	orange	ears	75	kazzes
13	4352	implied_prevalence	danger-distinct	15	generic	purple	feathers	100	lorches
13	3304	implied_prevalence	nondistinctive	16	generic	silver	fur	75	morseths
13	3423	implied_prevalence	bare	17	generic	green	teeth	100	zoovs
13	8185	implied_prevalence	nondistinctive	18	generic	gold	feathers	85	plovs
13	3008	implied_prevalence	bare	19	generic	pink	legs	100	feps
13	2711	implied_prevalence	nondistinctive	20	generic	pink	teeth	100	krivels
13	2712	implied_prevalence	nondistinctive	21	generic	orange	shells	100	luzaks
13	2535	implied_prevalence	danger-distinct	22	generic	pink	ears	100	elleps
13	2344	implied_prevalence	nondistinctive	23	generic	yellow	scales	100	dorbs
13	2392	implied_prevalence	danger-distinct	24	generic	blue	teeth	100	thups
13	2440	implied_prevalence	danger-distinct	25	generic	purple	shells	100	javs
13	7735	implied_prevalence	danger-distinct	26	generic	gold	spots	100	stups
13	3816	implied_prevalence	bare	27	generic	copper	fur	100	kweps
13	6288	implied_prevalence	bare	28	generic	green	shells	95	moxes
13	3249	implied_prevalence	danger-distinct	29	generic	yellow	legs	100	ludinos
14	16116	implied_prevalence	nondistinctive	0	generic	orange	ears	100	kazzes
14	5871	implied_prevalence	bare	1	generic	red	feathers	100	noobs
14	4848	implied_prevalence	bare	2	generic	gold	stripes	100	daiths
14	9768	implied_prevalence	nondistinctive	3	generic	copper	stripes	100	mooks
14	8687	implied_prevalence	nondistinctive	4	generic	green	teeth	100	zoovs
14	13702	implied_prevalence	danger-distinct	5	generic	silver	stripes	100	frams
14	9752	implied_prevalence	danger-distinct	6	generic	green	shells	100	moxes
14	6024	implied_prevalence	bare	7	generic	copper	fur	100	kweps
14	4416	implied_prevalence	bare	8	generic	pink	ears	100	elleps
14	9031	implied_prevalence	nondistinctive	9	generic	copper	spots	100	glippets
14	11168	implied_prevalence	nondistinctive	10	generic	purple	feathers	100	lorches
14	3998	implied_prevalence	bare	11	generic	orange	shells	100	luzaks
14	9704	implied_prevalence	danger-distinct	12	generic	yellow	fur	100	ollers
14	5143	implied_prevalence	nondistinctive	13	generic	green	tails	100	trufts
14	7400	implied_prevalence	danger-distinct	14	generic	silver	legs	100	ackles
14	4511	implied_prevalence	nondistinctive	15	generic	yellow	scales	100	dorbs
14	4855	implied_prevalence	bare	16	generic	red	scales	100	blins
14	5225	implied_prevalence	danger-distinct	17	generic	blue	ears	100	cheebas
14	5176	implied_prevalence	danger-distinct	18	generic	blue	scales	100	reesles
14	5703	implied_prevalence	danger-distinct	19	generic	orange	tails	100	zorbs
14	4744	implied_prevalence	bare	20	generic	purple	tails	100	taifels
14	3720	implied_prevalence	bare	21	generic	blue	teeth	100	thups
14	7112	implied_prevalence	nondistinctive	22	generic	yellow	legs	100	ludinos
14	5440	implied_prevalence	nondistinctive	23	generic	purple	shells	100	javs
14	4856	implied_prevalence	bare	24	generic	gold	spots	100	stups
14	5599	implied_prevalence	danger-distinct	25	generic	red	spots	100	sapers
14	4777	implied_prevalence	bare	26	generic	pink	legs	100	feps
14	4351	implied_prevalence	danger-distinct	27	generic	pink	teeth	100	krivels
14	4824	implied_prevalence	danger-distinct	28	generic	gold	feathers	100	plovs
14	4039	implied_prevalence	nondistinctive	29	generic	silver	fur	100	morseths
15	28000	implied_prevalence	danger-distinct	0	generic	silver	stripes	100	frams
15	39512	implied_prevalence	danger-distinct	1	generic	purple	feathers	100	lorches
15	23502	implied_prevalence	nondistinctive	2	generic	red	feathers	100	noobs
15	23526	implied_prevalence	nondistinctive	3	generic	orange	shells	100	luzaks
15	17155	implied_prevalence	danger-distinct	4	generic	yellow	scales	100	dorbs
15	18508	implied_prevalence	nondistinctive	5	generic	copper	spots	100	glippets
15	8496	implied_prevalence	nondistinctive	6	generic	blue	teeth	100	thups
15	5557	implied_prevalence	nondistinctive	7	generic	gold	stripes	100	daiths
15	8324	implied_prevalence	nondistinctive	8	generic	yellow	legs	100	ludinos
15	5458	implied_prevalence	nondistinctive	9	generic	blue	scales	100	reesles
15	6874	implied_prevalence	bare	10	generic	pink	ears	100	elleps
15	7335	implied_prevalence	nondistinctive	11	generic	blue	ears	100	cheebas
15	5375	implied_prevalence	bare	12	generic	gold	spots	100	stups
15	4006	implied_prevalence	bare	13	generic	copper	stripes	100	mooks
15	3164	implied_prevalence	bare	14	generic	pink	teeth	100	krivels
15	8840	implied_prevalence	danger-distinct	15	generic	purple	tails	100	taifels
15	3137	implied_prevalence	bare	16	generic	silver	fur	100	morseths
15	7209	implied_prevalence	danger-distinct	17	generic	red	spots	100	sapers
15	3666	implied_prevalence	nondistinctive	18	generic	green	tails	100	trufts
15	6393	implied_prevalence	danger-distinct	19	generic	green	teeth	100	zoovs
15	7092	implied_prevalence	bare	20	generic	red	scales	100	blins
15	3467	implied_prevalence	danger-distinct	21	generic	purple	shells	100	javs
15	4876	implied_prevalence	danger-distinct	22	generic	yellow	fur	100	ollers
15	3902	implied_prevalence	bare	23	generic	green	shells	100	moxes
15	3473	implied_prevalence	bare	24	generic	gold	feathers	100	plovs
15	3238	implied_prevalence	bare	25	generic	orange	tails	100	zorbs
15	3161	implied_prevalence	bare	26	generic	silver	legs	100	ackles
15	5679	implied_prevalence	danger-distinct	27	generic	orange	ears	100	kazzes
15	2939	implied_prevalence	nondistinctive	28	generic	copper	fur	100	kweps
15	2858	implied_prevalence	danger-distinct	29	generic	pink	legs	100	feps
16	15462	implied_prevalence	bare	0	generic	gold	stripes	60	daiths
16	11615	implied_prevalence	danger-distinct	1	generic	yellow	scales	30	dorbs
16	9709	implied_prevalence	nondistinctive	2	generic	green	shells	90	moxes
16	6370	implied_prevalence	bare	3	generic	copper	spots	80	glippets
16	5796	implied_prevalence	bare	4	generic	green	tails	90	trufts
16	5251	implied_prevalence	bare	5	generic	blue	scales	80	reesles
16	8740	implied_prevalence	nondistinctive	6	generic	yellow	fur	90	ollers
16	7687	implied_prevalence	danger-distinct	7	generic	orange	tails	30	zorbs
16	6536	implied_prevalence	nondistinctive	8	generic	silver	stripes	80	frams
16	11641	implied_prevalence	nondistinctive	9	generic	pink	teeth	90	krivels
16	11657	implied_prevalence	danger-distinct	10	generic	gold	spots	20	stups
16	6733	implied_prevalence	danger-distinct	11	generic	blue	ears	20	cheebas
16	12693	implied_prevalence	bare	12	generic	purple	feathers	80	lorches
16	7504	implied_prevalence	nondistinctive	13	generic	pink	legs	90	feps
16	6057	implied_prevalence	bare	14	generic	silver	fur	80	morseths
16	4973	implied_prevalence	nondistinctive	15	generic	red	scales	90	blins
16	12077	implied_prevalence	nondistinctive	16	generic	gold	feathers	90	plovs
16	7762	implied_prevalence	nondistinctive	17	generic	purple	tails	90	taifels
16	8762	implied_prevalence	bare	18	generic	purple	shells	80	javs
16	8335	implied_prevalence	danger-distinct	19	generic	copper	fur	20	kweps
16	5656	implied_prevalence	nondistinctive	20	generic	pink	ears	90	elleps
16	6801	implied_prevalence	danger-distinct	21	generic	green	teeth	20	zoovs
16	7918	implied_prevalence	danger-distinct	22	generic	orange	shells	20	luzaks
16	15089	implied_prevalence	danger-distinct	23	generic	silver	legs	20	ackles
16	5994	implied_prevalence	danger-distinct	24	generic	copper	stripes	20	mooks
16	9910	implied_prevalence	bare	25	generic	orange	ears	80	kazzes
16	5266	implied_prevalence	danger-distinct	26	generic	red	feathers	20	noobs
16	5435	implied_prevalence	bare	27	generic	yellow	legs	80	ludinos
16	6119	implied_prevalence	nondistinctive	28	generic	red	spots	90	sapers
16	8526	implied_prevalence	bare	29	generic	blue	teeth	80	thups
17	7850	implied_prevalence	danger-distinct	0	generic	orange	tails	100	zorbs
17	6017	implied_prevalence	danger-distinct	1	generic	silver	stripes	100	frams
17	5139	implied_prevalence	danger-distinct	2	generic	green	shells	100	moxes
17	5610	implied_prevalence	nondistinctive	3	generic	pink	teeth	75	krivels
17	5969	implied_prevalence	danger-distinct	4	generic	green	teeth	100	zoovs
17	5403	implied_prevalence	danger-distinct	5	generic	pink	ears	100	elleps
17	3676	implied_prevalence	bare	6	generic	gold	spots	100	stups
17	2291	implied_prevalence	bare	7	generic	purple	shells	100	javs
17	7841	implied_prevalence	nondistinctive	8	generic	copper	spots	100	glippets
17	8358	implied_prevalence	bare	9	generic	pink	legs	80	feps
17	8450	implied_prevalence	nondistinctive	10	generic	red	scales	80	blins
17	3179	implied_prevalence	nondistinctive	11	generic	yellow	legs	90	ludinos
17	2470	implied_prevalence	bare	12	generic	gold	feathers	100	plovs
17	2084	implied_prevalence	bare	13	generic	blue	ears	100	cheebas
17	2994	implied_prevalence	nondistinctive	14	generic	copper	stripes	100	mooks
17	3090	implied_prevalence	bare	15	generic	silver	fur	80	morseths
17	2756	implied_prevalence	bare	16	generic	gold	stripes	90	daiths
17	2878	implied_prevalence	bare	17	generic	yellow	scales	90	dorbs
17	6787	implied_prevalence	nondistinctive	18	generic	orange	ears	100	kazzes
17	2730	implied_prevalence	danger-distinct	19	generic	blue	scales	100	reesles
17	3025	implied_prevalence	danger-distinct	20	generic	purple	feathers	100	lorches
17	2296	implied_prevalence	bare	21	generic	blue	teeth	100	thups
17	2833	implied_prevalence	danger-distinct	22	generic	silver	legs	100	ackles
17	6346	implied_prevalence	nondistinctive	23	generic	red	feathers	85	noobs
17	2587	implied_prevalence	danger-distinct	24	generic	red	spots	100	sapers
17	3581	implied_prevalence	nondistinctive	25	generic	orange	shells	100	luzaks
17	3298	implied_prevalence	danger-distinct	26	generic	copper	fur	100	kweps
17	2311	implied_prevalence	bare	27	generic	purple	tails	90	taifels
17	3758	implied_prevalence	nondistinctive	28	generic	yellow	fur	90	ollers
17	3042	implied_prevalence	nondistinctive	29	generic	green	tails	90	trufts
18	7237	implied_prevalence	bare	0	generic	copper	fur	100	kweps
18	12713	implied_prevalence	danger-distinct	1	generic	green	shells	100	moxes
18	9618	implied_prevalence	nondistinctive	2	generic	purple	shells	100	javs
18	8044	implied_prevalence	nondistinctive	3	generic	purple	feathers	100	lorches
18	4237	implied_prevalence	bare	4	generic	red	feathers	100	noobs
18	6017	implied_prevalence	nondistinctive	5	generic	yellow	fur	100	ollers
18	5594	implied_prevalence	nondistinctive	6	generic	red	spots	100	sapers
18	5715	implied_prevalence	nondistinctive	7	generic	red	scales	100	blins
18	10021	implied_prevalence	nondistinctive	8	generic	green	tails	100	trufts
18	9666	implied_prevalence	nondistinctive	9	generic	silver	legs	100	ackles
18	6233	implied_prevalence	danger-distinct	10	generic	green	teeth	100	zoovs
18	6184	implied_prevalence	danger-distinct	11	generic	copper	stripes	100	mooks
18	6717	implied_prevalence	danger-distinct	12	generic	yellow	legs	100	ludinos
18	5784	implied_prevalence	danger-distinct	13	generic	blue	ears	100	cheebas
18	3624	implied_prevalence	bare	14	generic	orange	tails	100	zorbs
18	6712	implied_prevalence	danger-distinct	15	generic	purple	tails	100	taifels
18	3502	implied_prevalence	nondistinctive	16	generic	pink	teeth	100	krivels
18	3596	implied_prevalence	bare	17	generic	pink	ears	100	elleps
18	3271	implied_prevalence	bare	18	generic	blue	scales	100	reesles
18	9335	implied_prevalence	danger-distinct	19	generic	silver	fur	100	morseths
18	9362	implied_prevalence	nondistinctive	20	generic	silver	stripes	100	frams
18	3058	implied_prevalence	bare	21	generic	gold	stripes	100	daiths
18	3731	implied_prevalence	bare	22	generic	orange	shells	100	luzaks
18	4387	implied_prevalence	nondistinctive	23	generic	orange	ears	100	kazzes
18	6487	implied_prevalence	bare	24	generic	blue	teeth	100	thups
18	5194	implied_prevalence	danger-distinct	25	generic	yellow	scales	100	dorbs
18	3720	implied_prevalence	bare	26	generic	copper	spots	100	glippets
18	7329	implied_prevalence	danger-distinct	27	generic	gold	feathers	100	plovs
18	3240	implied_prevalence	bare	28	generic	pink	legs	100	feps
18	5635	implied_prevalence	danger-distinct	29	generic	gold	spots	100	stups
19	23965	implied_prevalence	nondistinctive	0	generic	silver	fur	50	morseths
19	8742	implied_prevalence	bare	1	generic	blue	scales	100	reesles
19	9686	implied_prevalence	nondistinctive	2	generic	pink	ears	30	elleps
19	20704	implied_prevalence	nondistinctive	3	generic	gold	feathers	30	plovs
19	12939	implied_prevalence	bare	4	generic	purple	feathers	100	lorches
19	9703	implied_prevalence	nondistinctive	5	generic	red	scales	30	blins
19	14042	implied_prevalence	danger-distinct	6	generic	yellow	scales	100	dorbs
19	7416	implied_prevalence	bare	7	generic	yellow	legs	100	ludinos
19	6383	implied_prevalence	nondistinctive	8	generic	copper	stripes	30	mooks
19	9281	implied_prevalence	nondistinctive	9	generic	purple	tails	30	taifels
19	5791	implied_prevalence	nondistinctive	10	generic	green	shells	30	moxes
19	13562	implied_prevalence	danger-distinct	11	generic	red	feathers	100	noobs
19	7704	implied_prevalence	danger-distinct	12	generic	blue	ears	100	cheebas
19	5351	implied_prevalence	bare	13	generic	orange	ears	100	kazzes
19	4384	implied_prevalence	bare	14	generic	copper	spots	100	glippets
19	5464	implied_prevalence	bare	15	generic	gold	stripes	100	daiths
19	9761	implied_prevalence	danger-distinct	16	generic	pink	teeth	100	krivels
19	5200	implied_prevalence	bare	17	generic	blue	teeth	100	thups
19	6096	implied_prevalence	danger-distinct	18	generic	purple	shells	100	javs
19	3815	implied_prevalence	bare	19	generic	orange	tails	100	zorbs
19	5713	implied_prevalence	danger-distinct	20	generic	green	tails	100	trufts
19	5128	implied_prevalence	danger-distinct	21	generic	yellow	fur	100	ollers
19	4311	implied_prevalence	bare	22	generic	copper	fur	100	kweps
19	7729	implied_prevalence	danger-distinct	23	generic	silver	stripes	100	frams
19	5136	implied_prevalence	danger-distinct	24	generic	pink	legs	100	feps
19	7105	implied_prevalence	nondistinctive	25	generic	gold	spots	30	stups
19	3600	implied_prevalence	bare	26	generic	orange	shells	100	luzaks
19	6527	implied_prevalence	nondistinctive	27	generic	green	teeth	50	zoovs
19	11473	implied_prevalence	nondistinctive	28	generic	silver	legs	50	ackles
19	6400	implied_prevalence	danger-distinct	29	generic	red	spots	100	sapers
20	19951	implied_prevalence	danger-distinct	0	generic	green	teeth	100	zoovs
20	17152	implied_prevalence	danger-distinct	1	generic	orange	ears	100	kazzes
20	19963	implied_prevalence	nondistinctive	2	generic	gold	spots	100	stups
20	14840	implied_prevalence	danger-distinct	3	generic	purple	tails	100	taifels
20	13383	implied_prevalence	nondistinctive	4	generic	blue	scales	100	reesles
20	10751	implied_prevalence	nondistinctive	5	generic	green	shells	100	moxes
20	13101	implied_prevalence	nondistinctive	6	generic	gold	feathers	100	plovs
20	6864	implied_prevalence	bare	7	generic	orange	tails	100	zorbs
20	7979	implied_prevalence	bare	8	generic	copper	stripes	100	mooks
20	6837	implied_prevalence	bare	9	generic	purple	shells	100	javs
20	12904	implied_prevalence	nondistinctive	10	generic	silver	stripes	100	frams
20	11514	implied_prevalence	danger-distinct	11	generic	red	spots	100	sapers
20	13119	implied_prevalence	danger-distinct	12	generic	gold	stripes	100	daiths
20	9267	implied_prevalence	nondistinctive	13	generic	green	tails	100	trufts
20	7014	implied_prevalence	bare	14	generic	yellow	fur	100	ollers
20	14566	implied_prevalence	danger-distinct	15	generic	pink	legs	100	feps
20	11317	implied_prevalence	danger-distinct	16	generic	orange	shells	100	luzaks
20	11104	implied_prevalence	danger-distinct	17	generic	silver	fur	100	morseths
20	12398	implied_prevalence	bare	18	generic	copper	spots	90	glippets
20	12798	implied_prevalence	danger-distinct	19	generic	purple	feathers	100	lorches
20	13834	implied_prevalence	bare	20	generic	blue	ears	99	cheebas
20	8253	implied_prevalence	nondistinctive	21	generic	pink	ears	100	elleps
20	10580	implied_prevalence	nondistinctive	22	generic	copper	fur	100	kweps
20	5703	implied_prevalence	bare	23	generic	red	scales	100	blins
20	5515	implied_prevalence	bare	24	generic	red	feathers	100	noobs
20	9684	implied_prevalence	danger-distinct	25	generic	yellow	scales	100	dorbs
20	8933	implied_prevalence	nondistinctive	26	generic	yellow	legs	100	ludinos
20	7670	implied_prevalence	bare	27	generic	silver	legs	100	ackles
20	8500	implied_prevalence	nondistinctive	28	generic	pink	teeth	100	krivels
20	7633	implied_prevalence	bare	29	generic	blue	teeth	100	thups
21	5150	implied_prevalence	bare	0	generic	pink	ears	100	elleps
21	9126	implied_prevalence	nondistinctive	1	generic	green	teeth	75	zoovs
21	4298	implied_prevalence	bare	2	generic	green	shells	80	moxes
21	2352	implied_prevalence	danger-distinct	3	generic	silver	legs	90	ackles
21	985	implied_prevalence	danger-distinct	4	generic	copper	spots	90	glippets
21	797	implied_prevalence	nondistinctive	5	generic	blue	scales	90	reesles
21	1028	implied_prevalence	danger-distinct	6	generic	gold	stripes	90	daiths
21	2436	implied_prevalence	danger-distinct	7	generic	pink	teeth	80	krivels
21	860	implied_prevalence	nondistinctive	8	generic	purple	shells	80	javs
21	1047	implied_prevalence	nondistinctive	9	generic	yellow	legs	80	ludinos
21	844	implied_prevalence	nondistinctive	10	generic	blue	ears	80	cheebas
21	1187	implied_prevalence	danger-distinct	11	generic	purple	feathers	80	lorches
21	2175	implied_prevalence	danger-distinct	12	generic	copper	fur	75	kweps
21	2961	implied_prevalence	nondistinctive	13	generic	red	spots	75	sapers
21	2487	implied_prevalence	bare	14	generic	pink	legs	80	feps
21	2648	implied_prevalence	bare	15	generic	purple	tails	90	taifels
21	1056	implied_prevalence	bare	16	generic	copper	stripes	90	mooks
21	982	implied_prevalence	danger-distinct	17	generic	orange	shells	90	luzaks
21	2635	implied_prevalence	bare	18	generic	yellow	scales	60	dorbs
21	49083	implied_prevalence	danger-distinct	19	generic	orange	ears	20	kazzes
21	2327	implied_prevalence	bare	20	generic	gold	feathers	80	plovs
21	929	implied_prevalence	danger-distinct	21	generic	red	scales	80	blins
21	828	implied_prevalence	bare	22	generic	blue	teeth	80	thups
21	687	implied_prevalence	bare	23	generic	yellow	fur	80	ollers
21	1196	implied_prevalence	nondistinctive	24	generic	orange	tails	80	zorbs
21	882	implied_prevalence	nondistinctive	25	generic	red	feathers	80	noobs
21	743	implied_prevalence	nondistinctive	26	generic	silver	stripes	80	frams
21	762	implied_prevalence	danger-distinct	27	generic	green	tails	80	trufts
21	973	implied_prevalence	bare	28	generic	gold	spots	80	stups
21	2184	implied_prevalence	nondistinctive	29	generic	silver	fur	90	morseths
22	16253	implied_prevalence	danger-distinct	0	generic	red	scales	20	blins
22	8449	implied_prevalence	bare	1	generic	blue	scales	80	reesles
22	58597	implied_prevalence	nondistinctive	2	generic	silver	legs	40	ackles
22	6116	implied_prevalence	bare	3	generic	green	shells	10	moxes
22	32268	implied_prevalence	danger-distinct	4	generic	silver	stripes	25	frams
22	15499	implied_prevalence	nondistinctive	5	generic	gold	stripes	78	daiths
22	1950	implied_prevalence	danger-distinct	6	generic	yellow	legs	54	ludinos
22	2385	implied_prevalence	danger-distinct	7	generic	orange	tails	43	zorbs
22	1681	implied_prevalence	nondistinctive	8	generic	purple	tails	32	taifels
22	6984	implied_prevalence	nondistinctive	9	generic	copper	fur	70	kweps
22	4765	implied_prevalence	bare	10	generic	green	tails	12	trufts
22	4855	implied_prevalence	nondistinctive	11	generic	pink	ears	70	elleps
22	30373	implied_prevalence	nondistinctive	12	generic	red	spots	15	sapers
22	6385	implied_prevalence	danger-distinct	13	generic	orange	shells	1	luzaks
22	10252	implied_prevalence	danger-distinct	14	generic	yellow	fur	31	ollers
22	2117	implied_prevalence	danger-distinct	15	generic	blue	teeth	21	thups
22	23578	implied_prevalence	bare	16	generic	silver	fur	15	morseths
22	17318	implied_prevalence	bare	17	generic	copper	stripes	30	mooks
22	2019	implied_prevalence	nondistinctive	18	generic	pink	teeth	21	krivels
22	3271	implied_prevalence	danger-distinct	19	generic	copper	spots	26	glippets
22	1511	implied_prevalence	nondistinctive	20	generic	purple	shells	34	javs
22	2366	implied_prevalence	bare	21	generic	green	teeth	21	zoovs
22	6318	implied_prevalence	bare	22	generic	pink	legs	100	feps
22	8969	implied_prevalence	danger-distinct	23	generic	orange	ears	10	kazzes
22	2548	implied_prevalence	danger-distinct	24	generic	gold	feathers	21	plovs
22	2670	implied_prevalence	bare	25	generic	purple	feathers	65	lorches
22	3380	implied_prevalence	bare	26	generic	blue	ears	100	cheebas
22	4600	implied_prevalence	bare	27	generic	gold	spots	100	stups
22	6003	implied_prevalence	nondistinctive	28	generic	yellow	scales	55	dorbs
22	8260	implied_prevalence	nondistinctive	29	generic	red	feathers	100	noobs
23	13448	implied_prevalence	nondistinctive	0	generic	blue	ears	100	cheebas
23	6674	implied_prevalence	bare	1	generic	yellow	fur	100	ollers
23	10155	implied_prevalence	danger-distinct	2	generic	purple	tails	100	taifels
23	5634	implied_prevalence	danger-distinct	3	generic	pink	teeth	100	krivels
23	4056	implied_prevalence	bare	4	generic	red	feathers	100	noobs
23	3831	implied_prevalence	nondistinctive	5	generic	blue	teeth	100	thups
23	3533	implied_prevalence	bare	6	generic	red	scales	100	blins
23	3734	implied_prevalence	bare	7	generic	orange	shells	100	luzaks
23	3319	implied_prevalence	bare	8	generic	copper	stripes	100	mooks
23	6843	implied_prevalence	danger-distinct	9	generic	purple	feathers	100	lorches
23	4599	implied_prevalence	danger-distinct	10	generic	red	spots	100	sapers
23	3034	implied_prevalence	nondistinctive	11	generic	orange	tails	100	zorbs
23	2931	implied_prevalence	bare	12	generic	silver	legs	100	ackles
23	5752	implied_prevalence	bare	13	generic	gold	spots	100	stups
23	2402	implied_prevalence	danger-distinct	14	generic	pink	ears	100	elleps
23	2212	implied_prevalence	bare	15	generic	orange	ears	100	kazzes
23	2459	implied_prevalence	danger-distinct	16	generic	silver	fur	100	morseths
23	5264	implied_prevalence	danger-distinct	17	generic	purple	shells	100	javs
23	3130	implied_prevalence	nondistinctive	18	generic	silver	stripes	100	frams
23	3104	implied_prevalence	danger-distinct	19	generic	yellow	scales	100	dorbs
23	2191	implied_prevalence	danger-distinct	20	generic	gold	stripes	100	daiths
23	2479	implied_prevalence	nondistinctive	21	generic	copper	fur	100	kweps
23	2372	implied_prevalence	danger-distinct	22	generic	yellow	legs	100	ludinos
23	1986	implied_prevalence	nondistinctive	23	generic	gold	feathers	100	plovs
23	2095	implied_prevalence	bare	24	generic	green	teeth	100	zoovs
23	2842	implied_prevalence	nondistinctive	25	generic	blue	scales	100	reesles
23	2508	implied_prevalence	bare	26	generic	green	tails	100	trufts
23	2003	implied_prevalence	nondistinctive	27	generic	copper	spots	100	glippets
23	2338	implied_prevalence	nondistinctive	28	generic	pink	legs	100	feps
23	1921	implied_prevalence	nondistinctive	29	generic	green	shells	100	moxes
24	8048	implied_prevalence	bare	0	generic	gold	stripes	100	daiths
24	18751	implied_prevalence	nondistinctive	1	generic	orange	ears	100	kazzes
24	19344	implied_prevalence	danger-distinct	2	generic	copper	stripes	100	mooks
24	10984	implied_prevalence	nondistinctive	3	generic	yellow	fur	100	ollers
24	16047	implied_prevalence	danger-distinct	4	generic	gold	feathers	100	plovs
24	10865	implied_prevalence	bare	5	generic	blue	teeth	100	thups
24	10663	implied_prevalence	danger-distinct	6	generic	pink	teeth	100	krivels
24	7521	implied_prevalence	bare	7	generic	silver	fur	100	morseths
24	11335	implied_prevalence	nondistinctive	8	generic	silver	stripes	100	frams
24	11615	implied_prevalence	nondistinctive	9	generic	pink	legs	100	feps
24	10465	implied_prevalence	danger-distinct	10	generic	green	shells	100	moxes
24	11768	implied_prevalence	danger-distinct	11	generic	copper	fur	100	kweps
24	10279	implied_prevalence	bare	12	generic	copper	spots	100	glippets
24	6952	implied_prevalence	bare	13	generic	yellow	scales	100	dorbs
24	10256	implied_prevalence	nondistinctive	14	generic	purple	feathers	100	lorches
24	11080	implied_prevalence	nondistinctive	15	generic	blue	scales	100	reesles
24	9160	implied_prevalence	danger-distinct	16	generic	red	scales	100	blins
24	10520	implied_prevalence	danger-distinct	17	generic	green	tails	100	trufts
24	8568	implied_prevalence	bare	18	generic	yellow	legs	100	ludinos
24	7680	implied_prevalence	nondistinctive	19	generic	orange	shells	100	luzaks
24	6424	implied_prevalence	bare	20	generic	purple	shells	100	javs
24	11567	implied_prevalence	danger-distinct	21	generic	silver	legs	100	ackles
24	6712	implied_prevalence	nondistinctive	22	generic	orange	tails	100	zorbs
24	10151	implied_prevalence	nondistinctive	23	generic	green	teeth	100	zoovs
24	10192	implied_prevalence	danger-distinct	24	generic	gold	spots	100	stups
24	7168	implied_prevalence	bare	25	generic	purple	tails	100	taifels
24	6047	implied_prevalence	bare	26	generic	pink	ears	100	elleps
24	6704	implied_prevalence	bare	27	generic	red	feathers	100	noobs
24	9273	implied_prevalence	nondistinctive	28	generic	red	spots	100	sapers
24	8383	implied_prevalence	danger-distinct	29	generic	blue	ears	100	cheebas
25	13296	implied_prevalence	danger-distinct	0	generic	orange	ears	100	kazzes
25	7039	implied_prevalence	danger-distinct	1	generic	green	tails	100	trufts
25	4135	implied_prevalence	bare	2	generic	green	teeth	100	zoovs
25	7264	implied_prevalence	nondistinctive	3	generic	red	spots	100	sapers
25	8568	implied_prevalence	danger-distinct	4	generic	yellow	fur	100	ollers
25	6984	implied_prevalence	nondistinctive	5	generic	silver	stripes	100	frams
25	4208	implied_prevalence	bare	6	generic	gold	spots	100	stups
25	4187	implied_prevalence	bare	7	generic	blue	ears	100	cheebas
25	4346	implied_prevalence	bare	8	generic	red	feathers	100	noobs
25	6127	implied_prevalence	nondistinctive	9	generic	blue	teeth	100	thups
25	6152	implied_prevalence	nondistinctive	10	generic	pink	ears	100	elleps
25	7199	implied_prevalence	danger-distinct	11	generic	gold	feathers	100	plovs
25	5937	implied_prevalence	nondistinctive	12	generic	orange	shells	100	luzaks
25	3910	implied_prevalence	bare	13	generic	silver	legs	100	ackles
25	4031	implied_prevalence	bare	14	generic	silver	fur	100	morseths
25	6199	implied_prevalence	nondistinctive	15	generic	purple	feathers	100	lorches
25	5615	implied_prevalence	danger-distinct	16	generic	pink	teeth	100	krivels
25	4647	implied_prevalence	nondistinctive	17	generic	orange	tails	100	zorbs
25	6664	implied_prevalence	danger-distinct	18	generic	gold	stripes	100	daiths
25	5840	implied_prevalence	danger-distinct	19	generic	purple	shells	100	javs
25	4399	implied_prevalence	bare	20	generic	copper	stripes	100	mooks
25	3696	implied_prevalence	bare	21	generic	purple	tails	100	taifels
25	5574	implied_prevalence	danger-distinct	22	generic	yellow	legs	100	ludinos
25	6648	implied_prevalence	nondistinctive	23	generic	copper	fur	100	kweps
25	4102	implied_prevalence	bare	24	generic	green	shells	100	moxes
25	5999	implied_prevalence	nondistinctive	25	generic	pink	legs	100	feps
25	5992	implied_prevalence	nondistinctive	26	generic	blue	scales	100	reesles
25	3793	implied_prevalence	bare	27	generic	red	scales	100	blins
25	6743	implied_prevalence	danger-distinct	28	generic	copper	spots	100	glippets
25	7160	implied_prevalence	danger-distinct	29	generic	yellow	scales	100	dorbs
26	7993	implied_prevalence	bare	0	generic	pink	ears	75	elleps
26	10213	implied_prevalence	danger-distinct	1	generic	red	feathers	100	noobs
26	10329	implied_prevalence	danger-distinct	2	generic	orange	shells	74	luzaks
26	9526	implied_prevalence	nondistinctive	3	generic	gold	feathers	100	plovs
26	8378	implied_prevalence	nondistinctive	4	generic	blue	ears	100	cheebas
26	7896	implied_prevalence	danger-distinct	5	generic	orange	ears	50	kazzes
26	6077	implied_prevalence	bare	6	generic	blue	scales	100	reesles
26	4375	implied_prevalence	bare	7	generic	blue	teeth	100	thups
26	5010	implied_prevalence	bare	8	generic	gold	stripes	50	daiths
26	5241	implied_prevalence	bare	9	generic	purple	tails	75	taifels
26	7524	implied_prevalence	nondistinctive	10	generic	green	tails	50	trufts
26	34808	implied_prevalence	nondistinctive	11	generic	yellow	fur	50	ollers
26	3971	implied_prevalence	bare	12	generic	green	shells	100	moxes
26	27097	implied_prevalence	nondistinctive	13	generic	silver	stripes	75	frams
26	38425	implied_prevalence	danger-distinct	14	generic	pink	teeth	90	krivels
26	90192	implied_prevalence	danger-distinct	15	generic	pink	legs	75	feps
26	15509	implied_prevalence	nondistinctive	16	generic	purple	shells	100	javs
26	24491	implied_prevalence	danger-distinct	17	generic	silver	fur	100	morseths
26	3623	implied_prevalence	bare	18	generic	silver	legs	100	ackles
26	4865	implied_prevalence	nondistinctive	19	generic	green	teeth	100	zoovs
26	8917	implied_prevalence	danger-distinct	20	generic	yellow	scales	100	dorbs
26	3353	implied_prevalence	bare	21	generic	copper	fur	50	kweps
26	6038	implied_prevalence	danger-distinct	22	generic	copper	stripes	90	mooks
26	8349	implied_prevalence	nondistinctive	23	generic	yellow	legs	100	ludinos
26	94640	implied_prevalence	danger-distinct	24	generic	copper	spots	75	glippets
26	6731	implied_prevalence	danger-distinct	25	generic	orange	tails	90	zorbs
26	4253	implied_prevalence	bare	26	generic	gold	spots	90	stups
26	40391	implied_prevalence	bare	27	generic	purple	feathers	50	lorches
26	32278	implied_prevalence	nondistinctive	28	generic	red	scales	75	blins
26	6248	implied_prevalence	nondistinctive	29	generic	red	spots	100	sapers
27	21671	implied_prevalence	nondistinctive	0	generic	pink	legs	98	feps
27	17020	implied_prevalence	danger-distinct	1	generic	blue	teeth	99	thups
27	14967	implied_prevalence	nondistinctive	2	generic	purple	tails	98	taifels
27	9447	implied_prevalence	bare	3	generic	copper	fur	99	kweps
27	11168	implied_prevalence	danger-distinct	4	generic	yellow	legs	99	ludinos
27	14920	implied_prevalence	danger-distinct	5	generic	green	shells	99	moxes
27	21216	implied_prevalence	danger-distinct	6	generic	silver	fur	99	morseths
27	7982	implied_prevalence	bare	7	generic	pink	teeth	99	krivels
27	6217	implied_prevalence	bare	8	generic	green	tails	99	trufts
27	9175	implied_prevalence	danger-distinct	9	generic	red	spots	99	sapers
27	15368	implied_prevalence	danger-distinct	10	generic	red	feathers	99	noobs
27	4825	implied_prevalence	bare	11	generic	gold	feathers	99	plovs
27	11847	implied_prevalence	nondistinctive	12	generic	copper	stripes	97	mooks
27	8832	implied_prevalence	danger-distinct	13	generic	yellow	scales	99	dorbs
27	8031	implied_prevalence	nondistinctive	14	generic	red	scales	97	blins
27	5799	implied_prevalence	bare	15	generic	orange	ears	99	kazzes
27	6607	implied_prevalence	danger-distinct	16	generic	orange	tails	99	zorbs
27	10849	implied_prevalence	bare	17	generic	blue	scales	99	reesles
27	7591	implied_prevalence	nondistinctive	18	generic	yellow	fur	97	ollers
27	4759	implied_prevalence	bare	19	generic	gold	stripes	99	daiths
27	4279	implied_prevalence	bare	20	generic	copper	spots	99	glippets
27	7520	implied_prevalence	danger-distinct	21	generic	blue	ears	99	cheebas
27	4640	implied_prevalence	bare	22	generic	purple	shells	98	javs
27	7560	implied_prevalence	nondistinctive	23	generic	orange	shells	97	luzaks
27	7599	implied_prevalence	nondistinctive	24	generic	gold	spots	97	stups
27	8375	implied_prevalence	danger-distinct	25	generic	silver	stripes	99	frams
27	6111	implied_prevalence	nondistinctive	26	generic	green	teeth	97	zoovs
27	7463	implied_prevalence	nondistinctive	27	generic	purple	feathers	97	lorches
27	8559	implied_prevalence	nondistinctive	28	generic	pink	ears	97	elleps
27	6543	implied_prevalence	bare	29	generic	silver	legs	99	ackles
28	14564	implied_prevalence	danger-distinct	0	generic	purple	shells	100	javs
28	10133	implied_prevalence	nondistinctive	1	generic	green	teeth	80	zoovs
28	8535	implied_prevalence	nondistinctive	2	generic	gold	feathers	90	plovs
28	10380	implied_prevalence	danger-distinct	3	generic	purple	feathers	100	lorches
28	8498	implied_prevalence	danger-distinct	4	generic	blue	teeth	100	thups
28	6585	implied_prevalence	nondistinctive	5	generic	pink	ears	90	elleps
28	7581	implied_prevalence	danger-distinct	6	generic	silver	legs	100	ackles
28	11650	implied_prevalence	danger-distinct	7	generic	red	spots	100	sapers
28	5583	implied_prevalence	bare	8	generic	purple	tails	100	taifels
28	5268	implied_prevalence	bare	9	generic	red	feathers	100	noobs
28	7214	implied_prevalence	nondistinctive	10	generic	green	tails	80	trufts
28	9582	implied_prevalence	danger-distinct	11	generic	orange	tails	100	zorbs
28	7718	implied_prevalence	nondistinctive	12	generic	pink	legs	90	feps
28	6150	implied_prevalence	bare	13	generic	yellow	legs	100	ludinos
28	4116	implied_prevalence	bare	14	generic	blue	scales	100	reesles
28	4084	implied_prevalence	bare	15	generic	gold	spots	100	stups
28	3900	implied_prevalence	bare	16	generic	pink	teeth	100	krivels
28	5866	implied_prevalence	danger-distinct	17	generic	yellow	scales	100	dorbs
28	4051	implied_prevalence	bare	18	generic	blue	ears	100	cheebas
28	6132	implied_prevalence	bare	19	generic	copper	stripes	100	mooks
28	6468	implied_prevalence	danger-distinct	20	generic	silver	fur	100	morseths
28	6168	implied_prevalence	danger-distinct	21	generic	silver	stripes	100	frams
28	4029	implied_prevalence	bare	22	generic	orange	shells	100	luzaks
28	7483	implied_prevalence	nondistinctive	23	generic	green	shells	90	moxes
28	5585	implied_prevalence	nondistinctive	24	generic	gold	stripes	90	daiths
28	6866	implied_prevalence	nondistinctive	25	generic	copper	spots	90	glippets
28	9033	implied_prevalence	nondistinctive	26	generic	red	scales	90	blins
28	4485	implied_prevalence	nondistinctive	27	generic	yellow	fur	90	ollers
28	3630	implied_prevalence	bare	28	generic	copper	fur	100	kweps
28	5867	implied_prevalence	danger-distinct	29	generic	orange	ears	100	kazzes
29	12794	implied_prevalence	danger-distinct	0	generic	blue	ears	100	cheebas
29	9357	implied_prevalence	nondistinctive	1	generic	silver	fur	100	morseths
29	4379	implied_prevalence	bare	2	generic	pink	teeth	100	krivels
29	8938	implied_prevalence	danger-distinct	3	generic	silver	stripes	100	frams
29	2197	implied_prevalence	bare	4	generic	yellow	fur	100	ollers
29	7263	implied_prevalence	danger-distinct	5	generic	gold	feathers	100	plovs
29	4574	implied_prevalence	bare	6	generic	pink	ears	100	elleps
29	3269	implied_prevalence	bare	7	generic	purple	tails	100	taifels
29	12094	implied_prevalence	nondistinctive	8	generic	orange	tails	75	zorbs
29	11473	implied_prevalence	nondistinctive	9	generic	yellow	scales	75	dorbs
29	7015	implied_prevalence	nondistinctive	10	generic	red	feathers	100	noobs
29	5923	implied_prevalence	danger-distinct	11	generic	orange	shells	100	luzaks
29	6531	implied_prevalence	danger-distinct	12	generic	green	teeth	100	zoovs
29	23190	implied_prevalence	bare	13	generic	gold	spots	80	stups
29	5635	implied_prevalence	nondistinctive	14	generic	copper	spots	30	glippets
29	2616	implied_prevalence	bare	15	generic	purple	shells	100	javs
29	2277	implied_prevalence	bare	16	generic	purple	feathers	100	lorches
29	7438	implied_prevalence	danger-distinct	17	generic	green	tails	100	trufts
29	6181	implied_prevalence	danger-distinct	18	generic	red	scales	100	blins
29	38274	implied_prevalence	nondistinctive	19	generic	green	shells	75	moxes
29	3849	implied_prevalence	nondistinctive	20	generic	blue	teeth	50	thups
29	3851	implied_prevalence	nondistinctive	21	generic	gold	stripes	50	daiths
29	4344	implied_prevalence	nondistinctive	22	generic	orange	ears	100	kazzes
29	3483	implied_prevalence	bare	23	generic	blue	scales	100	reesles
29	1955	implied_prevalence	bare	24	generic	copper	stripes	100	mooks
29	7333	implied_prevalence	danger-distinct	25	generic	copper	fur	25	kweps
29	6677	implied_prevalence	nondistinctive	26	generic	silver	legs	100	ackles
29	6125	implied_prevalence	danger-distinct	27	generic	red	spots	30	sapers
29	8279	implied_prevalence	danger-distinct	28	generic	yellow	legs	100	ludinos
29	2542	implied_prevalence	bare	29	generic	pink	legs	100	feps