workerid,rt,trial_type,stim_type,stim_part,stim_determiner,trialNum,stim_color,stim_prevalence,response,stim_category
0,3483,truth_conditions,danger,tails,generic,0,green,10,False,trufts
0,4043,truth_conditions,bare,shells,generic,1,green,30,True,moxes
0,3110,truth_conditions,distinct,legs,generic,2,silver,10,False,ackles
0,3231,truth_conditions,danger,scales,generic,3,red,70,True,blins
0,1505,truth_conditions,distinct,scales,generic,4,blue,70,True,reesles
0,1863,truth_conditions,bare,tails,generic,5,orange,50,True,zorbs
0,2608,truth_conditions,bare,scales,generic,6,yellow,30,False,dorbs
0,2048,truth_conditions,distinct,tails,generic,7,purple,30,False,taifels
0,1967,truth_conditions,bare,feathers,generic,8,red,50,True,noobs
0,1138,truth_conditions,distinct,ears,generic,9,pink,90,True,elleps
0,1184,truth_conditions,bare,teeth,generic,10,pink,50,True,krivels
0,966,truth_conditions,bare,stripes,generic,11,gold,90,True,daiths
0,1801,truth_conditions,danger,teeth,generic,12,green,50,True,zoovs
0,1583,truth_conditions,danger,shells,generic,13,orange,90,True,luzaks
0,1946,truth_conditions,danger,legs,generic,14,yellow,10,False,ludinos
0,1093,truth_conditions,distinct,teeth,generic,15,blue,70,True,thups
0,1486,truth_conditions,distinct,spots,generic,16,copper,10,False,glippets
0,1514,truth_conditions,distinct,stripes,generic,17,copper,30,False,mooks
0,2022,truth_conditions,bare,legs,generic,18,pink,50,True,feps
0,2217,truth_conditions,danger,feathers,generic,19,gold,70,True,plovs
0,1392,truth_conditions,bare,spots,generic,20,red,10,True,sapers
0,1681,truth_conditions,bare,ears,generic,21,orange,30,False,kazzes
0,1446,truth_conditions,danger,ears,generic,22,blue,30,False,cheebas
0,1600,truth_conditions,danger,spots,generic,23,gold,70,True,stups
0,1057,truth_conditions,distinct,feathers,generic,24,purple,70,True,lorches
0,1328,truth_conditions,distinct,fur,generic,25,silver,90,True,morseths
0,1367,truth_conditions,danger,fur,generic,26,copper,90,True,kweps
0,1864,truth_conditions,danger,stripes,generic,27,silver,90,True,frams
0,2336,truth_conditions,distinct,shells,generic,28,purple,10,False,javs
0,1239,truth_conditions,bare,fur,generic,29,yellow,50,True,ollers
1,10759,truth_conditions,distinct,legs,generic,0,silver,50,False,ackles
1,4744,truth_conditions,bare,ears,generic,1,blue,50,False,cheebas
1,6819,truth_conditions,distinct,stripes,generic,2,copper,30,False,mooks
1,5622,truth_conditions,distinct,tails,generic,3,purple,90,False,taifels
1,4048,truth_conditions,danger,scales,generic,4,red,70,False,blins
1,3244,truth_conditions,distinct,ears,generic,5,orange,10,False,kazzes
1,6612,truth_conditions,distinct,teeth,generic,6,green,50,False,zoovs
1,2294,truth_conditions,danger,tails,generic,7,orange,90,False,zorbs
1,2541,truth_conditions,distinct,spots,generic,8,red,70,False,sapers
1,2200,truth_conditions,distinct,feathers,generic,9,purple,30,False,lorches
1,2451,truth_conditions,bare,tails,generic,10,green,30,False,trufts
1,1928,truth_conditions,danger,fur,generic,11,copper,30,False,kweps
1,1591,truth_conditions,bare,stripes,generic,12,gold,10,False,daiths
1,2005,truth_conditions,bare,spots,generic,13,gold,70,False,stups
1,3168,truth_conditions,bare,feathers,generic,14,red,90,False,noobs
1,3529,truth_conditions,danger,legs,generic,15,pink,50,False,feps
1,1826,truth_conditions,bare,teeth,generic,16,blue,70,False,thups
1,2219,truth_conditions,bare,fur,generic,17,silver,30,False,morseths
1,2459,truth_conditions,danger,stripes,generic,18,silver,90,False,frams
1,2001,truth_conditions,distinct,scales,generic,19,yellow,10,False,dorbs
1,2160,truth_conditions,bare,legs,generic,20,yellow,70,False,ludinos
1,6033,truth_conditions,danger,feathers,generic,21,gold,30,False,plovs
1,2478,truth_conditions,danger,shells,generic,22,green,50,False,moxes
1,2349,truth_conditions,danger,spots,generic,23,copper,90,False,glippets
1,1676,truth_conditions,distinct,shells,generic,24,orange,70,False,luzaks
1,1613,truth_conditions,bare,scales,generic,25,blue,90,False,reesles
1,1585,truth_conditions,danger,ears,generic,26,pink,10,False,elleps
1,1771,truth_conditions,bare,shells,generic,27,purple,50,False,javs
1,1482,truth_conditions,distinct,fur,generic,28,yellow,10,False,ollers
1,1747,truth_conditions,danger,teeth,generic,29,pink,10,False,krivels
2,8585,truth_conditions,danger,scales,generic,0,blue,30,True,reesles
2,6881,truth_conditions,danger,shells,generic,1,green,70,True,moxes
2,5108,truth_conditions,bare,shells,generic,2,orange,10,True,luzaks
2,4012,truth_conditions,distinct,ears,generic,3,blue,70,True,cheebas
2,3278,truth_conditions,bare,feathers,generic,4,gold,50,True,plovs
2,14600,truth_conditions,bare,spots,generic,5,red,30,True,sapers
2,3145,truth_conditions,distinct,shells,generic,6,purple,30,True,javs
2,4314,truth_conditions,danger,legs,generic,7,pink,10,True,feps
2,5836,truth_conditions,danger,feathers,generic,8,red,10,True,noobs
2,3942,truth_conditions,danger,tails,generic,9,green,50,True,trufts
2,4361,truth_conditions,bare,scales,generic,10,red,50,True,blins
2,2459,truth_conditions,bare,ears,generic,11,pink,70,True,elleps
2,2380,truth_conditions,bare,tails,generic,12,orange,50,True,zorbs
2,6179,truth_conditions,distinct,teeth,generic,13,blue,90,True,thups
2,46831,truth_conditions,danger,ears,generic,14,orange,70,True,kazzes
2,2627,truth_conditions,bare,fur,generic,15,silver,30,True,morseths
2,4069,truth_conditions,distinct,fur,generic,16,yellow,50,True,ollers
2,2363,truth_conditions,danger,fur,generic,17,copper,70,True,kweps
2,2676,truth_conditions,danger,spots,generic,18,copper,10,True,glippets
2,2792,truth_conditions,bare,legs,generic,19,yellow,90,True,ludinos
2,2378,truth_conditions,bare,teeth,generic,20,green,10,True,zoovs
2,1755,truth_conditions,bare,stripes,generic,21,gold,10,True,daiths
2,3184,truth_conditions,danger,stripes,generic,22,copper,90,True,mooks
2,3269,truth_conditions,danger,teeth,generic,23,pink,30,True,krivels
2,1200,truth_conditions,distinct,legs,generic,24,silver,70,True,ackles
2,789,truth_conditions,distinct,spots,generic,25,gold,30,True,stups
2,755,truth_conditions,distinct,scales,generic,26,yellow,50,True,dorbs
2,2039,truth_conditions,distinct,feathers,generic,27,purple,90,True,lorches
2,1450,truth_conditions,distinct,tails,generic,28,purple,90,True,taifels
2,1539,truth_conditions,distinct,stripes,generic,29,silver,90,True,frams
3,8213,truth_conditions,danger,fur,generic,0,copper,30,True,kweps
3,5118,truth_conditions,bare,fur,generic,1,silver,90,False,morseths
3,7085,truth_conditions,danger,scales,generic,2,yellow,50,True,dorbs
3,7652,truth_conditions,danger,legs,generic,3,yellow,10,False,ludinos
3,6026,truth_conditions,distinct,stripes,generic,4,copper,30,False,mooks
3,3335,truth_conditions,distinct,tails,generic,5,purple,90,True,taifels
3,4916,truth_conditions,distinct,teeth,generic,6,green,70,False,zoovs
3,5489,truth_conditions,bare,tails,generic,7,orange,50,False,zorbs
3,3078,truth_conditions,bare,ears,generic,8,blue,90,True,cheebas
3,5815,truth_conditions,danger,ears,generic,9,pink,10,False,elleps
3,4212,truth_conditions,danger,feathers,generic,10,gold,50,True,plovs
3,2672,truth_conditions,bare,spots,generic,11,copper,30,False,glippets
3,6364,truth_conditions,bare,teeth,generic,12,pink,70,False,krivels
3,4839,truth_conditions,distinct,feathers,generic,13,purple,30,True,lorches
3,6913,truth_conditions,danger,tails,generic,14,green,10,True,trufts
3,8230,truth_conditions,bare,stripes,generic,15,silver,90,True,frams
3,5186,truth_conditions,distinct,scales,generic,16,red,10,False,blins
3,2540,truth_conditions,bare,scales,generic,17,blue,30,False,reesles
3,3667,truth_conditions,distinct,ears,generic,18,orange,50,True,kazzes
3,2985,truth_conditions,danger,teeth,generic,19,blue,10,False,thups
3,3237,truth_conditions,distinct,legs,generic,20,pink,90,True,feps
3,7087,truth_conditions,distinct,spots,generic,21,gold,70,True,stups
3,2539,truth_conditions,bare,legs,generic,22,silver,70,True,ackles
3,2188,truth_conditions,bare,feathers,generic,23,red,30,False,noobs
3,2569,truth_conditions,bare,shells,generic,24,purple,70,False,javs
3,2928,truth_conditions,danger,shells,generic,25,orange,50,True,luzaks
3,6172,truth_conditions,distinct,shells,generic,26,green,50,True,moxes
3,3509,truth_conditions,danger,spots,generic,27,red,10,True,sapers
3,2524,truth_conditions,danger,stripes,generic,28,gold,70,True,daiths
3,4182,truth_conditions,distinct,fur,generic,29,yellow,90,True,ollers
4,17058,truth_conditions,distinct,stripes,generic,0,silver,70,True,frams
4,5566,truth_conditions,bare,shells,generic,1,purple,90,True,javs
4,12350,truth_conditions,danger,teeth,generic,2,blue,50,True,thups
4,14574,truth_conditions,distinct,scales,generic,3,blue,10,True,reesles
4,6356,truth_conditions,danger,scales,generic,4,yellow,90,True,dorbs
4,5071,truth_conditions,distinct,teeth,generic,5,pink,10,True,krivels
4,6816,truth_conditions,bare,teeth,generic,6,green,50,True,zoovs
4,14711,truth_conditions,distinct,legs,generic,7,pink,10,True,feps
4,4640,truth_conditions,danger,stripes,generic,8,gold,90,True,daiths
4,4167,truth_conditions,distinct,tails,generic,9,orange,30,True,zorbs
4,3722,truth_conditions,bare,ears,generic,10,orange,70,True,kazzes
4,6944,truth_conditions,danger,legs,generic,11,yellow,70,True,ludinos
4,4957,truth_conditions,bare,scales,generic,12,red,50,True,blins
4,3864,truth_conditions,distinct,ears,generic,13,blue,90,True,cheebas
4,4653,truth_conditions,danger,spots,generic,14,gold,30,True,stups
4,22768,truth_conditions,distinct,feathers,generic,15,red,10,False,noobs
4,5290,truth_conditions,bare,legs,generic,16,silver,70,False,ackles
4,4544,truth_conditions,danger,tails,generic,17,purple,10,False,taifels
4,5621,truth_conditions,bare,fur,generic,18,yellow,70,False,ollers
4,6446,truth_conditions,distinct,shells,generic,19,orange,50,True,luzaks
4,2110,truth_conditions,distinct,spots,generic,20,copper,50,True,glippets
4,5963,truth_conditions,danger,fur,generic,21,copper,50,True,kweps
4,2651,truth_conditions,danger,shells,generic,22,green,30,True,moxes
4,3953,truth_conditions,bare,spots,generic,23,red,30,True,sapers
4,7684,truth_conditions,bare,feathers,generic,24,purple,10,True,lorches
4,3746,truth_conditions,bare,tails,generic,25,green,30,True,trufts
4,4057,truth_conditions,danger,feathers,generic,26,gold,90,True,plovs
4,4627,truth_conditions,danger,ears,generic,27,pink,90,True,elleps
4,5651,truth_conditions,distinct,fur,generic,28,silver,70,True,morseths
4,4450,truth_conditions,bare,stripes,generic,29,copper,30,False,mooks
5,16737,truth_conditions,distinct,ears,generic,0,blue,50,False,cheebas
5,13399,truth_conditions,danger,teeth,generic,1,pink,10,False,krivels
5,5548,truth_conditions,distinct,teeth,generic,2,blue,10,False,thups
5,7753,truth_conditions,danger,stripes,generic,3,copper,70,False,mooks
5,18493,truth_conditions,distinct,scales,generic,4,blue,50,True,reesles
5,6396,truth_conditions,bare,scales,generic,5,yellow,90,True,dorbs
5,10567,truth_conditions,danger,fur,generic,6,copper,30,False,kweps
5,7552,truth_conditions,danger,feathers,generic,7,gold,30,False,plovs
5,12175,truth_conditions,danger,spots,generic,8,red,30,False,sapers
5,12258,truth_conditions,distinct,fur,generic,9,silver,70,True,morseths
5,7509,truth_conditions,bare,spots,generic,10,copper,10,False,glippets
5,5066,truth_conditions,danger,legs,generic,11,pink,10,False,feps
5,4932,truth_conditions,bare,feathers,generic,12,purple,90,False,lorches
5,4769,truth_conditions,bare,shells,generic,13,purple,50,False,javs
5,7809,truth_conditions,distinct,tails,generic,14,purple,90,True,taifels
5,3566,truth_conditions,bare,tails,generic,15,orange,30,False,zorbs
5,2369,truth_conditions,bare,ears,generic,16,pink,10,False,elleps
5,3207,truth_conditions,bare,fur,generic,17,yellow,50,False,ollers
5,5309,truth_conditions,danger,shells,generic,18,green,90,False,moxes
5,3956,truth_conditions,danger,tails,generic,19,green,70,False,trufts
5,3359,truth_conditions,danger,ears,generic,20,orange,30,False,kazzes
5,5580,truth_conditions,distinct,feathers,generic,21,red,70,True,noobs
5,4909,truth_conditions,danger,scales,generic,22,red,30,False,blins
5,3155,truth_conditions,distinct,legs,generic,23,silver,70,True,ackles
5,4194,truth_conditions,bare,stripes,generic,24,gold,70,False,daiths
5,2943,truth_conditions,bare,legs,generic,25,yellow,50,False,ludinos
5,3415,truth_conditions,distinct,stripes,generic,26,silver,50,True,frams
5,2974,truth_conditions,bare,teeth,generic,27,green,90,False,zoovs
5,3597,truth_conditions,distinct,spots,generic,28,gold,90,True,stups
5,3254,truth_conditions,distinct,shells,generic,29,orange,10,True,luzaks
6,23163,truth_conditions,danger,fur,generic,0,silver,50,True,morseths
6,21433,truth_conditions,distinct,spots,generic,1,red,50,True,sapers
6,18255,truth_conditions,danger,teeth,generic,2,green,90,True,zoovs
6,29784,truth_conditions,distinct,tails,generic,3,purple,30,False,taifels
6,16135,truth_conditions,bare,teeth,generic,4,blue,50,True,thups
6,21424,truth_conditions,danger,shells,generic,5,purple,70,True,javs
6,13632,truth_conditions,distinct,fur,generic,6,yellow,90,True,ollers
6,7783,truth_conditions,bare,ears,generic,7,pink,70,True,elleps
6,12128,truth_conditions,danger,legs,generic,8,yellow,70,True,ludinos
6,10919,truth_conditions,danger,scales,generic,9,yellow,10,False,dorbs
6,12600,truth_conditions,distinct,teeth,generic,10,pink,90,True,krivels
6,14039,truth_conditions,danger,spots,generic,11,copper,70,True,glippets
6,8367,truth_conditions,danger,ears,generic,12,orange,50,True,kazzes
6,6531,truth_conditions,distinct,ears,generic,13,blue,30,True,cheebas
6,7803,truth_conditions,bare,stripes,generic,14,gold,30,True,daiths
6,7766,truth_conditions,danger,stripes,generic,15,copper,10,False,mooks
6,6823,truth_conditions,bare,shells,generic,16,orange,30,True,luzaks
6,5504,truth_conditions,bare,legs,generic,17,pink,10,True,feps
6,4415,truth_conditions,bare,tails,generic,18,green,30,True,trufts
6,7544,truth_conditions,distinct,stripes,generic,19,silver,30,True,frams
6,3607,truth_conditions,bare,fur,generic,20,copper,90,True,kweps
6,6744,truth_conditions,danger,feathers,generic,21,gold,10,True,plovs
6,4744,truth_conditions,bare,spots,generic,22,gold,90,True,stups
6,6880,truth_conditions,distinct,feathers,generic,23,red,70,True,noobs
6,5150,truth_conditions,bare,feathers,generic,24,purple,90,True,lorches
6,7047,truth_conditions,distinct,scales,generic,25,blue,50,True,reesles
6,10639,truth_conditions,distinct,shells,generic,26,green,10,True,moxes
6,10263,truth_conditions,distinct,legs,generic,27,silver,70,True,ackles
6,6439,truth_conditions,bare,scales,generic,28,red,10,True,blins
6,6287,truth_conditions,danger,tails,generic,29,orange,50,True,zorbs
7,36319,truth_conditions,danger,spots,generic,0,copper,70,True,glippets
7,21021,truth_conditions,bare,feathers,generic,1,gold,90,True,plovs
7,20686,truth_conditions,distinct,teeth,generic,2,green,70,True,zoovs
7,6560,truth_conditions,bare,shells,generic,3,orange,50,False,luzaks
7,15785,truth_conditions,distinct,legs,generic,4,yellow,90,True,ludinos
7,8190,truth_conditions,distinct,shells,generic,5,purple,10,False,javs
7,12804,truth_conditions,distinct,stripes,generic,6,gold,30,False,daiths
7,48706,truth_conditions,danger,stripes,generic,7,silver,30,False,frams
7,15991,truth_conditions,bare,legs,generic,8,pink,50,False,feps
7,10840,truth_conditions,danger,legs,generic,9,silver,50,False,ackles
7,4567,truth_conditions,bare,fur,generic,10,copper,90,True,kweps
7,5871,truth_conditions,bare,spots,generic,11,red,30,False,sapers
7,6776,truth_conditions,bare,tails,generic,12,purple,70,True,taifels
7,7719,truth_conditions,danger,scales,generic,13,yellow,70,True,dorbs
7,16743,truth_conditions,distinct,scales,generic,14,red,50,False,blins
7,7783,truth_conditions,bare,stripes,generic,15,copper,30,False,mooks
7,18801,truth_conditions,danger,teeth,generic,16,blue,70,True,thups
7,9679,truth_conditions,distinct,spots,generic,17,gold,10,False,stups
7,5983,truth_conditions,bare,scales,generic,18,blue,90,True,reesles
7,5105,truth_conditions,bare,teeth,generic,19,pink,90,True,krivels
7,7814,truth_conditions,danger,tails,generic,20,green,90,True,trufts
7,6611,truth_conditions,danger,shells,generic,21,green,30,False,moxes
7,5227,truth_conditions,bare,ears,generic,22,blue,70,True,cheebas
7,7726,truth_conditions,danger,ears,generic,23,orange,30,False,kazzes
7,9776,truth_conditions,distinct,feathers,generic,24,purple,50,False,lorches
7,7582,truth_conditions,distinct,tails,generic,25,orange,10,False,zorbs
7,6352,truth_conditions,distinct,fur,generic,26,yellow,10,False,ollers
7,5072,truth_conditions,distinct,ears,generic,27,pink,10,False,elleps
7,7391,truth_conditions,danger,fur,generic,28,silver,10,False,morseths
7,20152,truth_conditions,danger,feathers,generic,29,red,50,False,noobs
8,18088,truth_conditions,danger,stripes,generic,0,silver,10,True,frams
8,17525,truth_conditions,distinct,fur,generic,1,yellow,10,True,ollers
8,5449,truth_conditions,bare,spots,generic,2,gold,10,True,stups
8,5409,truth_conditions,bare,feathers,generic,3,red,50,True,noobs
8,6074,truth_conditions,danger,scales,generic,4,yellow,30,True,dorbs
8,4733,truth_conditions,bare,tails,generic,5,orange,30,True,zorbs
8,5420,truth_conditions,danger,feathers,generic,6,purple,70,True,lorches
8,5660,truth_conditions,distinct,teeth,generic,7,pink,10,True,krivels
8,5789,truth_conditions,distinct,scales,generic,8,red,10,True,blins
8,3164,truth_conditions,bare,ears,generic,9,pink,50,True,elleps
8,6970,truth_conditions,danger,shells,generic,10,orange,50,True,luzaks
8,3106,truth_conditions,bare,legs,generic,11,silver,90,True,ackles
8,5444,truth_conditions,distinct,spots,generic,12,red,30,True,sapers
8,3106,truth_conditions,distinct,tails,generic,13,purple,30,True,taifels
8,4273,truth_conditions,danger,ears,generic,14,orange,70,True,kazzes
8,3089,truth_conditions,bare,teeth,generic,15,blue,70,True,thups
8,6044,truth_conditions,distinct,feathers,generic,16,gold,70,True,plovs
8,4547,truth_conditions,distinct,shells,generic,17,green,70,True,moxes
8,3207,truth_conditions,distinct,legs,generic,18,pink,50,True,feps
8,2934,truth_conditions,bare,scales,generic,19,blue,10,True,reesles
8,3714,truth_conditions,distinct,ears,generic,20,blue,30,True,cheebas
8,4666,truth_conditions,danger,fur,generic,21,copper,90,True,kweps
8,3730,truth_conditions,distinct,stripes,generic,22,copper,70,True,mooks
8,3137,truth_conditions,bare,fur,generic,23,silver,90,True,morseths
8,3922,truth_conditions,danger,spots,generic,24,copper,50,True,glippets
8,3149,truth_conditions,danger,teeth,generic,25,green,90,True,zoovs
8,3909,truth_conditions,bare,stripes,generic,26,gold,90,True,daiths
8,4148,truth_conditions,danger,tails,generic,27,green,30,True,trufts
8,3591,truth_conditions,bare,shells,generic,28,purple,90,True,javs
8,3964,truth_conditions,danger,legs,generic,29,yellow,50,True,ludinos
9,20060,truth_conditions,distinct,feathers,generic,0,purple,50,True,lorches
9,8106,truth_conditions,danger,legs,generic,1,yellow,90,True,ludinos
9,4850,truth_conditions,danger,feathers,generic,2,red,90,True,noobs
9,5890,truth_conditions,bare,tails,generic,3,purple,30,False,taifels
9,7001,truth_conditions,distinct,scales,generic,4,yellow,50,True,dorbs
9,5319,truth_conditions,danger,spots,generic,5,gold,10,False,stups
9,7127,truth_conditions,distinct,shells,generic,6,green,10,False,moxes
9,2591,truth_conditions,bare,fur,generic,7,silver,70,True,morseths
9,9432,truth_conditions,distinct,legs,generic,8,silver,70,True,ackles
9,4521,truth_conditions,distinct,ears,generic,9,pink,10,False,elleps
9,2299,truth_conditions,bare,stripes,generic,10,gold,70,True,daiths
9,3792,truth_conditions,distinct,spots,generic,11,copper,10,False,glippets
9,3593,truth_conditions,distinct,fur,generic,12,copper,50,True,kweps
9,5652,truth_conditions,danger,shells,generic,13,orange,90,True,luzaks
9,4944,truth_conditions,distinct,teeth,generic,14,green,30,False,zoovs
9,21477,truth_conditions,bare,scales,generic,15,blue,10,False,reesles
9,5377,truth_conditions,danger,fur,generic,16,yellow,50,True,ollers
9,4345,truth_conditions,distinct,tails,generic,17,green,70,True,trufts
9,3485,truth_conditions,danger,teeth,generic,18,blue,10,False,thups
9,4306,truth_conditions,danger,ears,generic,19,orange,30,False,kazzes
9,4509,truth_conditions,distinct,stripes,generic,20,silver,90,True,frams
9,3083,truth_conditions,bare,ears,generic,21,blue,30,False,cheebas
9,2735,truth_conditions,danger,scales,generic,22,red,90,True,blins
9,3027,truth_conditions,bare,legs,generic,23,pink,70,True,feps
9,2608,truth_conditions,bare,shells,generic,24,purple,30,False,javs
9,2353,truth_conditions,bare,feathers,generic,25,gold,70,True,plovs
9,3790,truth_conditions,bare,teeth,generic,26,pink,30,False,krivels
9,2134,truth_conditions,bare,spots,generic,27,red,90,True,sapers
9,3545,truth_conditions,danger,stripes,generic,28,copper,50,True,mooks
9,6424,truth_conditions,danger,tails,generic,29,orange,50,True,zorbs
10,15410,truth_conditions,danger,ears,generic,0,orange,30,True,kazzes
10,6649,truth_conditions,bare,feathers,generic,1,purple,30,True,lorches
10,4387,truth_conditions,distinct,shells,generic,2,orange,10,True,luzaks
10,2680,truth_conditions,bare,teeth,generic,3,blue,30,True,thups
10,2897,truth_conditions,distinct,legs,generic,4,pink,10,True,feps
10,2665,truth_conditions,distinct,spots,generic,5,gold,50,True,stups
10,2633,truth_conditions,distinct,feathers,generic,6,gold,70,True,plovs
10,2277,truth_conditions,bare,legs,generic,7,yellow,90,True,ludinos
10,3578,truth_conditions,distinct,stripes,generic,8,copper,70,True,mooks
10,3538,truth_conditions,bare,ears,generic,9,pink,30,True,elleps
10,2712,truth_conditions,distinct,teeth,generic,10,green,50,True,zoovs
10,2198,truth_conditions,bare,spots,generic,11,copper,90,True,glippets
10,1999,truth_conditions,danger,stripes,generic,12,gold,70,True,daiths
10,2327,truth_conditions,danger,legs,generic,13,silver,90,True,ackles
10,1841,truth_conditions,danger,scales,generic,14,yellow,50,True,dorbs
10,3647,truth_conditions,bare,tails,generic,15,green,90,True,trufts
10,1952,truth_conditions,bare,fur,generic,16,silver,50,True,morseths
10,2049,truth_conditions,distinct,ears,generic,17,blue,50,True,cheebas
10,1830,truth_conditions,danger,teeth,generic,18,pink,10,True,krivels
10,2290,truth_conditions,danger,spots,generic,19,red,30,True,sapers
10,1854,truth_conditions,distinct,fur,generic,20,copper,90,True,kweps
10,2048,truth_conditions,distinct,scales,generic,21,blue,90,True,reesles
10,2693,truth_conditions,bare,shells,generic,22,green,10,True,moxes
10,2654,truth_conditions,distinct,tails,generic,23,purple,50,True,taifels
10,3598,truth_conditions,danger,shells,generic,24,purple,70,True,javs
10,3030,truth_conditions,bare,scales,generic,25,red,70,True,blins
10,2679,truth_conditions,danger,tails,generic,26,orange,30,True,zorbs
10,2374,truth_conditions,danger,feathers,generic,27,red,70,True,noobs
10,3336,truth_conditions,bare,stripes,generic,28,silver,10,True,frams
10,2365,truth_conditions,danger,fur,generic,29,yellow,10,True,ollers
11,13701,truth_conditions,danger,feathers,generic,0,red,70,True,noobs
11,6125,truth_conditions,danger,legs,generic,1,silver,50,True,ackles
11,5261,truth_conditions,bare,teeth,generic,2,green,10,True,zoovs
11,5795,truth_conditions,distinct,stripes,generic,3,silver,90,True,frams
11,4913,truth_conditions,distinct,shells,generic,4,purple,50,True,javs
11,3948,truth_conditions,bare,legs,generic,5,yellow,30,False,ludinos
11,5765,truth_conditions,danger,tails,generic,6,orange,50,True,zorbs
11,3347,truth_conditions,bare,tails,generic,7,green,50,True,trufts
11,4732,truth_conditions,danger,shells,generic,8,orange,50,True,luzaks
11,3592,truth_conditions,distinct,scales,generic,9,blue,90,True,reesles
11,4017,truth_conditions,danger,scales,generic,10,yellow,10,False,dorbs
11,4158,truth_conditions,danger,teeth,generic,11,pink,10,False,krivels
11,3646,truth_conditions,bare,spots,generic,12,red,10,False,sapers
11,4196,truth_conditions,danger,stripes,generic,13,copper,30,False,mooks
11,2530,truth_conditions,bare,feathers,generic,14,gold,70,True,plovs
11,2034,truth_conditions,distinct,spots,generic,15,gold,30,False,stups
11,1602,truth_conditions,danger,ears,generic,16,pink,90,True,elleps
11,2580,truth_conditions,distinct,feathers,generic,17,purple,90,True,lorches
11,4228,truth_conditions,distinct,teeth,generic,18,blue,70,True,thups
11,2646,truth_conditions,danger,fur,generic,19,silver,10,False,morseths
11,2862,truth_conditions,distinct,legs,generic,20,pink,10,False,feps
11,3156,truth_conditions,bare,fur,generic,21,copper,90,True,kweps
11,3079,truth_conditions,bare,scales,generic,22,red,70,True,blins
11,2998,truth_conditions,distinct,tails,generic,23,purple,30,False,taifels
11,2117,truth_conditions,distinct,ears,generic,24,orange,30,False,kazzes
11,2585,truth_conditions,distinct,fur,generic,25,yellow,70,True,ollers
11,2844,truth_conditions,bare,shells,generic,26,green,50,True,moxes
11,2670,truth_conditions,danger,spots,generic,27,copper,90,True,glippets
11,2262,truth_conditions,bare,stripes,generic,28,gold,30,False,daiths
11,1446,truth_conditions,bare,ears,generic,29,blue,70,True,cheebas
12,9545,truth_conditions,distinct,ears,generic,0,orange,30,False,kazzes
12,2459,truth_conditions,distinct,legs,generic,1,silver,90,True,ackles
12,2734,truth_conditions,bare,tails,generic,2,purple,30,False,taifels
12,3048,truth_conditions,danger,teeth,generic,3,pink,30,False,krivels
12,1563,truth_conditions,distinct,spots,generic,4,copper,70,True,glippets
12,6015,truth_conditions,danger,legs,generic,5,yellow,50,True,ludinos
12,2009,truth_conditions,danger,spots,generic,6,red,10,False,sapers
12,2592,truth_conditions,bare,scales,generic,7,blue,30,False,reesles
12,2610,truth_conditions,bare,stripes,generic,8,copper,50,True,mooks
12,2940,truth_conditions,bare,spots,generic,9,gold,10,False,stups
12,2739,truth_conditions,bare,fur,generic,10,copper,30,False,kweps
12,1317,truth_conditions,bare,teeth,generic,11,green,10,False,zoovs
12,1340,truth_conditions,bare,legs,generic,12,pink,70,True,feps
12,2676,truth_conditions,distinct,shells,generic,13,orange,90,True,luzaks
12,2242,truth_conditions,distinct,fur,generic,14,yellow,50,True,ollers
12,2041,truth_conditions,danger,fur,generic,15,silver,90,True,morseths
12,1341,truth_conditions,distinct,feathers,generic,16,gold,70,True,plovs
12,1282,truth_conditions,danger,stripes,generic,17,silver,70,True,frams
12,1599,truth_conditions,distinct,scales,generic,18,yellow,90,True,dorbs
12,2161,truth_conditions,bare,shells,generic,19,purple,50,True,javs
12,1013,truth_conditions,bare,ears,generic,20,pink,70,True,elleps
12,1821,truth_conditions,danger,shells,generic,21,green,50,True,moxes
12,1343,truth_conditions,danger,scales,generic,22,red,10,False,blins
12,2536,truth_conditions,distinct,teeth,generic,23,blue,50,True,thups
12,2387,truth_conditions,danger,feathers,generic,24,purple,90,True,lorches
12,22850,truth_conditions,distinct,tails,generic,25,green,10,False,trufts
12,1814,truth_conditions,danger,tails,generic,26,orange,10,False,zorbs
12,2299,truth_conditions,danger,ears,generic,27,blue,70,True,cheebas
12,2701,truth_conditions,distinct,stripes,generic,28,gold,30,False,daiths
12,2004,truth_conditions,bare,feathers,generic,29,red,90,True,noobs
13,8241,truth_conditions,bare,ears,generic,0,orange,70,False,kazzes
13,6748,truth_conditions,danger,spots,generic,1,gold,90,True,stups
13,7110,truth_conditions,danger,shells,generic,2,orange,10,False,luzaks
13,9976,truth_conditions,danger,stripes,generic,3,copper,50,False,mooks
13,4656,truth_conditions,distinct,tails,generic,4,green,30,False,trufts
13,5304,truth_conditions,distinct,shells,generic,5,purple,70,True,javs
13,3863,truth_conditions,bare,shells,generic,6,green,30,False,moxes
13,3456,truth_conditions,distinct,stripes,generic,7,gold,70,True,daiths
13,5240,truth_conditions,danger,fur,generic,8,silver,10,False,morseths
13,8520,truth_conditions,distinct,fur,generic,9,yellow,30,False,ollers
13,3184,truth_conditions,bare,legs,generic,10,yellow,10,False,ludinos
13,1711,truth_conditions,bare,fur,generic,11,copper,10,False,kweps
13,2600,truth_conditions,bare,scales,generic,12,yellow,50,False,dorbs
13,3208,truth_conditions,distinct,ears,generic,13,pink,70,True,elleps
13,3377,truth_conditions,danger,scales,generic,14,red,70,True,blins
13,3007,truth_conditions,bare,feathers,generic,15,purple,90,True,lorches
13,2920,truth_conditions,bare,stripes,generic,16,silver,30,False,frams
13,9327,truth_conditions,danger,feathers,generic,17,gold,10,False,plovs
13,2800,truth_conditions,bare,teeth,generic,18,pink,50,False,krivels
13,7001,truth_conditions,distinct,spots,generic,19,copper,50,False,glippets
13,3598,truth_conditions,distinct,scales,generic,20,blue,50,False,reesles
13,3127,truth_conditions,bare,spots,generic,21,red,70,True,sapers
13,5432,truth_conditions,danger,teeth,generic,22,green,30,False,zoovs
13,3136,truth_conditions,distinct,teeth,generic,23,blue,90,True,thups
13,4033,truth_conditions,distinct,feathers,generic,24,red,10,False,noobs
13,4558,truth_conditions,danger,ears,generic,25,blue,30,False,cheebas
13,3713,truth_conditions,distinct,legs,generic,26,silver,90,True,ackles
13,2255,truth_conditions,bare,tails,generic,27,purple,90,True,taifels
13,2904,truth_conditions,danger,tails,generic,28,orange,90,True,zorbs
13,4592,truth_conditions,danger,legs,generic,29,pink,50,False,feps
14,6742,truth_conditions,bare,spots,generic,0,copper,50,True,glippets
14,5512,truth_conditions,bare,fur,generic,1,yellow,30,False,ollers
14,5223,truth_conditions,distinct,tails,generic,2,green,10,True,trufts
14,3072,truth_conditions,danger,stripes,generic,3,gold,90,False,daiths
14,2023,truth_conditions,bare,ears,generic,4,pink,70,True,elleps
14,4723,truth_conditions,distinct,ears,generic,5,blue,10,False,cheebas
14,3817,truth_conditions,distinct,teeth,generic,6,pink,30,True,krivels
14,4182,truth_conditions,distinct,scales,generic,7,yellow,50,True,dorbs
14,5991,truth_conditions,danger,legs,generic,8,yellow,50,True,ludinos
14,2409,truth_conditions,danger,fur,generic,9,silver,10,False,morseths
14,1543,truth_conditions,danger,teeth,generic,10,green,70,True,zoovs
14,1729,truth_conditions,bare,tails,generic,11,orange,30,True,zorbs
14,2882,truth_conditions,bare,scales,generic,12,blue,10,False,reesles
14,1928,truth_conditions,danger,tails,generic,13,purple,50,True,taifels
14,1554,truth_conditions,distinct,legs,generic,14,silver,90,True,ackles
14,2145,truth_conditions,distinct,stripes,generic,15,silver,30,False,frams
14,2223,truth_conditions,bare,stripes,generic,16,copper,30,True,mooks
14,1608,truth_conditions,danger,ears,generic,17,orange,90,True,kazzes
14,1768,truth_conditions,danger,scales,generic,18,red,70,False,blins
14,1586,truth_conditions,danger,spots,generic,19,gold,30,True,stups
14,1680,truth_conditions,bare,shells,generic,20,purple,10,False,javs
14,2055,truth_conditions,distinct,feathers,generic,21,red,70,False,noobs
14,1848,truth_conditions,bare,teeth,generic,22,blue,90,True,thups
14,2074,truth_conditions,bare,legs,generic,23,pink,50,True,feps
14,2010,truth_conditions,distinct,shells,generic,24,green,90,False,moxes
14,2408,truth_conditions,danger,shells,generic,25,orange,10,True,luzaks
14,1641,truth_conditions,danger,feathers,generic,26,purple,70,True,lorches
14,1961,truth_conditions,bare,feathers,generic,27,gold,90,False,plovs
14,2599,truth_conditions,distinct,fur,generic,28,copper,70,True,kweps
14,2038,truth_conditions,distinct,spots,generic,29,red,50,True,sapers
15,11257,truth_conditions,distinct,scales,generic,0,blue,50,True,reesles
15,4149,truth_conditions,bare,spots,generic,1,gold,90,True,stups
15,4081,truth_conditions,distinct,teeth,generic,2,green,70,True,zoovs
15,2779,truth_conditions,danger,stripes,generic,3,copper,70,True,mooks
15,2945,truth_conditions,danger,feathers,generic,4,gold,10,False,plovs
15,3593,truth_conditions,bare,feathers,generic,5,red,10,False,noobs
15,1731,truth_conditions,bare,stripes,generic,6,silver,90,True,frams
15,3298,truth_conditions,distinct,shells,generic,7,green,10,False,moxes
15,2367,truth_conditions,danger,teeth,generic,8,pink,90,True,krivels
15,2395,truth_conditions,danger,fur,generic,9,silver,30,False,morseths
15,1500,truth_conditions,distinct,ears,generic,10,blue,90,True,cheebas
15,1571,truth_conditions,bare,tails,generic,11,purple,10,False,taifels
15,2825,truth_conditions,distinct,legs,generic,12,pink,70,True,feps
15,1433,truth_conditions,danger,spots,generic,13,red,90,True,sapers
15,1120,truth_conditions,bare,shells,generic,14,orange,90,True,luzaks
15,1648,truth_conditions,danger,tails,generic,15,green,30,False,trufts
15,1612,truth_conditions,distinct,tails,generic,16,orange,50,True,zorbs
15,1631,truth_conditions,bare,teeth,generic,17,blue,30,False,thups
15,2016,truth_conditions,distinct,stripes,generic,18,gold,30,True,daiths
15,1067,truth_conditions,danger,legs,generic,19,silver,50,True,ackles
15,1171,truth_conditions,bare,legs,generic,20,yellow,70,True,ludinos
15,1707,truth_conditions,danger,ears,generic,21,pink,30,False,elleps
15,1357,truth_conditions,bare,scales,generic,22,yellow,10,False,dorbs
15,1214,truth_conditions,distinct,fur,generic,23,yellow,30,False,ollers
15,2101,truth_conditions,bare,ears,generic,24,orange,50,True,kazzes
15,1935,truth_conditions,distinct,feathers,generic,25,purple,50,True,lorches
15,1434,truth_conditions,distinct,spots,generic,26,copper,70,True,glippets
15,1662,truth_conditions,danger,shells,generic,27,purple,70,True,javs
15,1748,truth_conditions,danger,scales,generic,28,red,10,False,blins
15,1352,truth_conditions,bare,fur,generic,29,copper,50,True,kweps
16,10476,truth_conditions,bare,shells,generic,0,purple,30,False,javs
16,6624,truth_conditions,bare,feathers,generic,1,purple,70,False,lorches
16,11026,truth_conditions,distinct,teeth,generic,2,pink,10,False,krivels
16,8778,truth_conditions,bare,ears,generic,3,blue,90,False,cheebas
16,5641,truth_conditions,bare,teeth,generic,4,green,90,False,zoovs
16,16180,truth_conditions,distinct,feathers,generic,5,gold,50,False,plovs
16,5487,truth_conditions,bare,scales,generic,6,blue,10,False,reesles
16,8992,truth_conditions,distinct,tails,generic,7,orange,90,False,zorbs
16,6258,truth_conditions,distinct,scales,generic,8,yellow,70,False,dorbs
16,14616,truth_conditions,danger,feathers,generic,9,red,10,False,noobs
16,5605,truth_conditions,bare,stripes,generic,10,silver,70,False,frams
16,6972,truth_conditions,bare,tails,generic,11,green,10,False,trufts
16,10712,truth_conditions,danger,tails,generic,12,purple,30,False,taifels
16,5739,truth_conditions,bare,spots,generic,13,red,70,False,sapers
16,4753,truth_conditions,bare,fur,generic,14,silver,30,False,morseths
16,8761,truth_conditions,danger,stripes,generic,15,gold,50,False,daiths
16,6022,truth_conditions,danger,legs,generic,16,yellow,50,False,ludinos
16,9143,truth_conditions,danger,shells,generic,17,orange,10,False,luzaks
16,6506,truth_conditions,distinct,ears,generic,18,orange,90,False,kazzes
16,7941,truth_conditions,distinct,stripes,generic,19,copper,90,False,mooks
16,6661,truth_conditions,bare,legs,generic,20,pink,30,False,feps
16,4773,truth_conditions,distinct,legs,generic,21,silver,70,False,ackles
16,5715,truth_conditions,distinct,fur,generic,22,copper,50,False,kweps
16,3407,truth_conditions,distinct,spots,generic,23,copper,10,False,glippets
16,5871,truth_conditions,distinct,shells,generic,24,green,70,False,moxes
16,6522,truth_conditions,danger,spots,generic,25,gold,90,False,stups
16,7009,truth_conditions,danger,fur,generic,26,yellow,50,False,ollers
16,8692,truth_conditions,danger,scales,generic,27,red,30,False,blins
16,4239,truth_conditions,danger,ears,generic,28,pink,30,False,elleps
16,5789,truth_conditions,danger,teeth,generic,29,blue,50,False,thups
17,8632,truth_conditions,bare,feathers,generic,0,gold,90,True,plovs
17,8686,truth_conditions,distinct,feathers,generic,1,red,30,True,noobs
17,8563,truth_conditions,bare,stripes,generic,2,silver,50,False,frams
17,6521,truth_conditions,danger,teeth,generic,3,green,30,False,zoovs
17,5248,truth_conditions,bare,ears,generic,4,orange,70,True,kazzes
17,7841,truth_conditions,distinct,ears,generic,5,blue,10,True,cheebas
17,6276,truth_conditions,distinct,stripes,generic,6,copper,70,True,mooks
17,8397,truth_conditions,danger,fur,generic,7,copper,10,False,kweps
17,5967,truth_conditions,bare,spots,generic,8,gold,90,True,stups
17,2768,truth_conditions,bare,fur,generic,9,silver,90,True,morseths
17,6781,truth_conditions,danger,tails,generic,10,purple,10,False,taifels
17,6384,truth_conditions,danger,shells,generic,11,green,10,False,moxes
17,6749,truth_conditions,danger,spots,generic,12,copper,50,True,glippets
17,4734,truth_conditions,distinct,teeth,generic,13,blue,70,True,thups
17,5469,truth_conditions,distinct,shells,generic,14,orange,90,True,luzaks
17,6764,truth_conditions,bare,scales,generic,15,red,30,False,blins
17,4063,truth_conditions,distinct,spots,generic,16,red,50,True,sapers
17,2120,truth_conditions,bare,tails,generic,17,orange,90,True,zorbs
17,7018,truth_conditions,danger,legs,generic,18,pink,50,True,feps
17,4757,truth_conditions,distinct,fur,generic,19,yellow,10,False,ollers
17,5010,truth_conditions,distinct,legs,generic,20,yellow,50,True,ludinos
17,3781,truth_conditions,bare,teeth,generic,21,pink,30,False,krivels
17,2433,truth_conditions,bare,shells,generic,22,purple,10,False,javs
17,3183,truth_conditions,distinct,scales,generic,23,yellow,90,True,dorbs
17,4850,truth_conditions,danger,ears,generic,24,pink,30,False,elleps
17,3417,truth_conditions,danger,stripes,generic,25,gold,70,True,daiths
17,4986,truth_conditions,danger,scales,generic,26,blue,70,True,reesles
17,4698,truth_conditions,distinct,tails,generic,27,green,30,False,trufts
17,5549,truth_conditions,danger,feathers,generic,28,purple,70,True,lorches
17,3784,truth_conditions,bare,legs,generic,29,silver,50,True,ackles
18,11130,truth_conditions,danger,spots,generic,0,red,50,True,sapers
18,5556,truth_conditions,distinct,tails,generic,1,orange,90,True,zorbs
18,16960,truth_conditions,bare,fur,generic,2,yellow,10,True,ollers
18,5416,truth_conditions,danger,tails,generic,3,purple,90,True,taifels
18,2944,truth_conditions,danger,scales,generic,4,yellow,70,True,dorbs
18,2408,truth_conditions,bare,legs,generic,5,pink,70,True,feps
18,1624,truth_conditions,bare,tails,generic,6,green,50,True,trufts
18,10490,truth_conditions,distinct,feathers,generic,7,red,10,True,noobs
18,2078,truth_conditions,danger,feathers,generic,8,purple,10,True,lorches
18,2320,truth_conditions,distinct,teeth,generic,9,pink,10,True,krivels
18,75744,truth_conditions,distinct,legs,generic,10,silver,30,True,ackles
18,2054,truth_conditions,bare,stripes,generic,11,gold,30,True,daiths
18,1873,truth_conditions,bare,ears,generic,12,blue,70,True,cheebas
18,1656,truth_conditions,bare,feathers,generic,13,gold,10,True,plovs
18,2528,truth_conditions,distinct,scales,generic,14,red,50,True,blins
18,1696,truth_conditions,bare,spots,generic,15,copper,70,True,glippets
18,2072,truth_conditions,distinct,ears,generic,16,orange,30,True,kazzes
18,2408,truth_conditions,distinct,stripes,generic,17,silver,10,True,frams
18,3016,truth_conditions,bare,shells,generic,18,orange,70,True,luzaks
18,1992,truth_conditions,distinct,shells,generic,19,purple,30,True,javs
18,1615,truth_conditions,bare,teeth,generic,20,green,90,True,zoovs
18,3503,truth_conditions,danger,shells,generic,21,green,90,True,moxes
18,2745,truth_conditions,danger,legs,generic,22,yellow,50,True,ludinos
18,1888,truth_conditions,bare,scales,generic,23,blue,70,True,reesles
18,3208,truth_conditions,danger,teeth,generic,24,blue,50,True,thups
18,2056,truth_conditions,distinct,spots,generic,25,gold,90,True,stups
18,4295,truth_conditions,danger,stripes,generic,26,copper,30,True,mooks
18,3856,truth_conditions,danger,fur,generic,27,copper,90,True,kweps
18,1536,truth_conditions,distinct,fur,generic,28,silver,30,True,morseths
18,920,truth_conditions,danger,ears,generic,29,pink,50,True,elleps
19,7062,truth_conditions,bare,stripes,generic,0,copper,90,False,mooks
19,17428,truth_conditions,distinct,shells,generic,1,purple,50,False,javs
19,4502,truth_conditions,bare,fur,generic,2,yellow,30,False,ollers
19,3848,truth_conditions,distinct,ears,generic,3,pink,70,False,elleps
19,3903,truth_conditions,distinct,spots,generic,4,red,90,False,sapers
19,3583,truth_conditions,bare,legs,generic,5,yellow,50,False,ludinos
19,5678,truth_conditions,danger,tails,generic,6,green,70,False,trufts
19,3509,truth_conditions,distinct,teeth,generic,7,pink,70,False,krivels
19,2847,truth_conditions,danger,scales,generic,8,yellow,50,False,dorbs
19,2831,truth_conditions,bare,spots,generic,9,gold,90,False,stups
19,3739,truth_conditions,danger,teeth,generic,10,blue,10,False,thups
19,3773,truth_conditions,danger,fur,generic,11,silver,10,False,morseths
19,2923,truth_conditions,distinct,legs,generic,12,pink,90,False,feps
19,3263,truth_conditions,bare,tails,generic,13,purple,30,False,taifels
19,4870,truth_conditions,bare,teeth,generic,14,green,10,False,zoovs
19,3547,truth_conditions,bare,ears,generic,15,blue,10,False,cheebas
19,2760,truth_conditions,bare,scales,generic,16,blue,50,False,reesles
19,3722,truth_conditions,danger,legs,generic,17,silver,10,False,ackles
19,3466,truth_conditions,danger,feathers,generic,18,gold,70,False,plovs
19,2652,truth_conditions,bare,shells,generic,19,orange,50,False,luzaks
19,3177,truth_conditions,distinct,feathers,generic,20,purple,30,False,lorches
19,3006,truth_conditions,danger,stripes,generic,21,silver,30,False,frams
19,3409,truth_conditions,distinct,scales,generic,22,red,70,False,blins
19,3837,truth_conditions,distinct,tails,generic,23,orange,90,False,zorbs
19,3063,truth_conditions,bare,feathers,generic,24,red,10,False,noobs
19,2760,truth_conditions,danger,shells,generic,25,green,90,False,moxes
19,3701,truth_conditions,distinct,fur,generic,26,copper,70,False,kweps
19,2441,truth_conditions,danger,ears,generic,27,orange,30,False,kazzes
19,3405,truth_conditions,danger,spots,generic,28,copper,30,False,glippets
19,3143,truth_conditions,distinct,stripes,generic,29,gold,50,False,daiths
20,17779,truth_conditions,danger,spots,generic,0,copper,90,True,glippets
20,4900,truth_conditions,bare,fur,generic,1,copper,10,False,kweps
20,2935,truth_conditions,bare,teeth,generic,2,pink,10,False,krivels
20,6936,truth_conditions,distinct,ears,generic,3,blue,90,True,cheebas
20,4545,truth_conditions,bare,tails,generic,4,green,90,True,trufts
20,6567,truth_conditions,distinct,teeth,generic,5,blue,70,True,thups
20,4443,truth_conditions,danger,legs,generic,6,yellow,10,False,ludinos
20,3496,truth_conditions,distinct,tails,generic,7,purple,90,True,taifels
20,1577,truth_conditions,danger,teeth,generic,8,green,10,False,zoovs
20,5703,truth_conditions,danger,ears,generic,9,pink,50,True,elleps
20,4176,truth_conditions,bare,spots,generic,10,red,70,True,sapers
20,2735,truth_conditions,distinct,legs,generic,11,silver,90,True,ackles
20,1728,truth_conditions,bare,ears,generic,12,orange,30,False,kazzes
20,2296,truth_conditions,distinct,spots,generic,13,gold,70,True,stups
20,1728,truth_conditions,distinct,feathers,generic,14,purple,30,False,lorches
20,1399,truth_conditions,danger,feathers,generic,15,gold,50,True,plovs
20,1399,truth_conditions,danger,tails,generic,16,orange,70,True,zorbs
20,3143,truth_conditions,bare,stripes,generic,17,copper,30,False,mooks
20,1488,truth_conditions,bare,scales,generic,18,yellow,50,True,dorbs
20,2432,truth_conditions,danger,shells,generic,19,purple,30,False,javs
20,1160,truth_conditions,distinct,scales,generic,20,red,50,True,blins
20,2968,truth_conditions,danger,scales,generic,21,blue,70,True,reesles
20,1544,truth_conditions,distinct,stripes,generic,22,silver,50,True,frams
20,1753,truth_conditions,distinct,shells,generic,23,orange,10,False,luzaks
20,2215,truth_conditions,distinct,fur,generic,24,yellow,30,False,ollers
20,3415,truth_conditions,bare,feathers,generic,25,red,10,False,noobs
20,2320,truth_conditions,danger,stripes,generic,26,gold,30,False,daiths
20,1864,truth_conditions,danger,fur,generic,27,silver,70,True,morseths
20,1528,truth_conditions,bare,shells,generic,28,green,50,True,moxes
20,1737,truth_conditions,bare,legs,generic,29,pink,90,True,feps
21,15457,truth_conditions,danger,ears,generic,0,blue,10,False,cheebas
21,12166,truth_conditions,distinct,tails,generic,1,purple,10,False,taifels
21,7881,truth_conditions,distinct,ears,generic,2,pink,70,True,elleps
21,15936,truth_conditions,danger,stripes,generic,3,silver,30,True,frams
21,9367,truth_conditions,danger,spots,generic,4,copper,90,True,glippets
21,4397,truth_conditions,bare,ears,generic,5,orange,10,False,kazzes
21,9492,truth_conditions,distinct,stripes,generic,6,gold,50,False,daiths
21,11640,truth_conditions,danger,tails,generic,7,orange,50,True,zorbs
21,5630,truth_conditions,bare,shells,generic,8,green,90,False,moxes
21,6727,truth_conditions,distinct,legs,generic,9,yellow,30,False,ludinos
21,4679,truth_conditions,bare,stripes,generic,10,copper,50,False,mooks
21,4460,truth_conditions,bare,scales,generic,11,blue,30,False,reesles
21,8352,truth_conditions,danger,fur,generic,12,copper,50,True,kweps
21,8423,truth_conditions,danger,scales,generic,13,red,30,True,blins
21,7880,truth_conditions,distinct,fur,generic,14,yellow,90,False,ollers
21,6265,truth_conditions,danger,feathers,generic,15,purple,70,True,lorches
21,5056,truth_conditions,distinct,feathers,generic,16,red,50,False,noobs
21,10488,truth_conditions,distinct,spots,generic,17,red,90,False,sapers
21,6750,truth_conditions,distinct,teeth,generic,18,pink,70,False,krivels
21,5242,truth_conditions,bare,teeth,generic,19,green,70,False,zoovs
21,3164,truth_conditions,bare,spots,generic,20,gold,90,False,stups
21,2876,truth_conditions,bare,legs,generic,21,pink,70,False,feps
21,6324,truth_conditions,danger,shells,generic,22,purple,70,True,javs
21,3013,truth_conditions,bare,feathers,generic,23,gold,50,False,plovs
21,5215,truth_conditions,bare,fur,generic,24,silver,10,False,morseths
21,5523,truth_conditions,danger,legs,generic,25,silver,10,True,ackles
21,4131,truth_conditions,danger,teeth,generic,26,blue,30,True,thups
21,4469,truth_conditions,distinct,scales,generic,27,yellow,90,False,dorbs
21,10243,truth_conditions,distinct,shells,generic,28,orange,30,False,luzaks
21,3568,truth_conditions,bare,tails,generic,29,green,10,False,trufts
22,13690,truth_conditions,danger,tails,generic,0,orange,30,False,zorbs
22,4346,truth_conditions,bare,ears,generic,1,pink,10,False,elleps
22,4110,truth_conditions,bare,shells,generic,2,green,90,False,moxes
22,6592,truth_conditions,distinct,scales,generic,3,blue,70,False,reesles
22,3862,truth_conditions,bare,legs,generic,4,pink,70,False,feps
22,4454,truth_conditions,danger,spots,generic,5,gold,30,False,stups
22,2905,truth_conditions,bare,scales,generic,6,red,70,False,blins
22,2628,truth_conditions,bare,tails,generic,7,purple,50,False,taifels
22,3942,truth_conditions,distinct,feathers,generic,8,red,70,False,noobs
22,3540,truth_conditions,distinct,fur,generic,9,copper,50,False,kweps
22,3601,truth_conditions,bare,spots,generic,10,red,30,False,sapers
22,6694,truth_conditions,distinct,shells,generic,11,orange,90,False,luzaks
22,2247,truth_conditions,bare,teeth,generic,12,blue,10,False,thups
22,6152,truth_conditions,danger,feathers,generic,13,purple,50,False,lorches
22,2175,truth_conditions,danger,scales,generic,14,yellow,90,False,dorbs
22,2855,truth_conditions,danger,stripes,generic,15,silver,90,False,frams
22,2725,truth_conditions,distinct,legs,generic,16,silver,50,False,ackles
22,2233,truth_conditions,danger,teeth,generic,17,pink,10,False,krivels
22,2103,truth_conditions,distinct,ears,generic,18,blue,70,False,cheebas
22,2296,truth_conditions,danger,ears,generic,19,orange,50,False,kazzes
22,2463,truth_conditions,bare,fur,generic,20,yellow,70,False,ollers
22,2542,truth_conditions,distinct,stripes,generic,21,copper,30,False,mooks
22,1919,truth_conditions,bare,stripes,generic,22,gold,50,False,daiths
22,1934,truth_conditions,danger,shells,generic,23,purple,10,False,javs
22,1817,truth_conditions,distinct,teeth,generic,24,green,10,False,zoovs
22,1780,truth_conditions,bare,feathers,generic,25,gold,90,False,plovs
22,1696,truth_conditions,distinct,tails,generic,26,green,30,False,trufts
22,3213,truth_conditions,distinct,spots,generic,27,copper,10,False,glippets
22,4631,truth_conditions,danger,fur,generic,28,silver,30,False,morseths
22,1633,truth_conditions,danger,legs,generic,29,yellow,90,False,ludinos
23,20236,truth_conditions,danger,fur,generic,0,silver,70,True,morseths
23,12697,truth_conditions,distinct,spots,generic,1,copper,50,True,glippets
23,23001,truth_conditions,distinct,shells,generic,2,purple,30,True,javs
23,12954,truth_conditions,distinct,scales,generic,3,yellow,90,True,dorbs
23,12111,truth_conditions,bare,feathers,generic,4,purple,50,False,lorches
23,7640,truth_conditions,bare,stripes,generic,5,copper,30,False,mooks
23,12846,truth_conditions,distinct,tails,generic,6,green,90,True,trufts
23,5329,truth_conditions,danger,ears,generic,7,pink,90,True,elleps
23,5217,truth_conditions,bare,fur,generic,8,yellow,90,True,ollers
23,4814,truth_conditions,distinct,stripes,generic,9,gold,10,False,daiths
23,7076,truth_conditions,distinct,legs,generic,10,pink,50,False,feps
23,5619,truth_conditions,danger,scales,generic,11,red,90,True,blins
23,4696,truth_conditions,bare,legs,generic,12,silver,10,False,ackles
23,5815,truth_conditions,bare,teeth,generic,13,green,30,False,zoovs
23,5602,truth_conditions,distinct,feathers,generic,14,red,50,False,noobs
23,3368,truth_conditions,distinct,fur,generic,15,copper,70,True,kweps
23,3931,truth_conditions,distinct,ears,generic,16,orange,30,False,kazzes
23,3484,truth_conditions,bare,spots,generic,17,red,70,True,sapers
23,10709,truth_conditions,danger,feathers,generic,18,gold,50,True,plovs
23,4913,truth_conditions,bare,scales,generic,19,blue,50,False,reesles
23,11568,truth_conditions,danger,stripes,generic,20,silver,10,False,frams
23,5570,truth_conditions,bare,ears,generic,21,blue,30,False,cheebas
23,5932,truth_conditions,distinct,teeth,generic,22,blue,10,False,thups
23,4798,truth_conditions,danger,teeth,generic,23,pink,10,False,krivels
23,4355,truth_conditions,danger,spots,generic,24,gold,70,True,stups
23,4924,truth_conditions,bare,shells,generic,25,green,70,True,moxes
23,6186,truth_conditions,danger,legs,generic,26,yellow,30,False,ludinos
23,4081,truth_conditions,danger,tails,generic,27,purple,70,True,taifels
23,5423,truth_conditions,danger,shells,generic,28,orange,10,False,luzaks
23,3484,truth_conditions,bare,tails,generic,29,orange,90,True,zorbs
24,15638,truth_conditions,danger,ears,generic,0,pink,90,True,elleps
24,16896,truth_conditions,distinct,tails,generic,1,green,50,True,trufts
24,10584,truth_conditions,distinct,feathers,generic,2,red,10,False,noobs
24,16857,truth_conditions,bare,stripes,generic,3,gold,30,True,daiths
24,3944,truth_conditions,bare,teeth,generic,4,pink,90,True,krivels
24,9754,truth_conditions,distinct,shells,generic,5,green,70,True,moxes
24,7470,truth_conditions,danger,teeth,generic,6,blue,70,True,thups
24,4181,truth_conditions,bare,spots,generic,7,red,10,False,sapers
24,13114,truth_conditions,danger,feathers,generic,8,gold,30,True,plovs
24,9777,truth_conditions,distinct,ears,generic,9,orange,70,True,kazzes
24,14422,truth_conditions,bare,ears,generic,10,blue,70,True,cheebas
24,14661,truth_conditions,danger,stripes,generic,11,copper,50,True,mooks
24,4830,truth_conditions,bare,tails,generic,12,orange,90,True,zorbs
24,9226,truth_conditions,distinct,scales,generic,13,red,10,False,blins
24,9286,truth_conditions,distinct,spots,generic,14,copper,50,True,glippets
24,5135,truth_conditions,distinct,fur,generic,15,yellow,70,True,ollers
24,4141,truth_conditions,bare,feathers,generic,16,purple,10,False,lorches
24,4794,truth_conditions,bare,fur,generic,17,copper,10,False,kweps
24,7231,truth_conditions,danger,scales,generic,18,yellow,50,True,dorbs
24,16663,truth_conditions,distinct,stripes,generic,19,silver,30,False,frams
24,168528,truth_conditions,danger,spots,generic,20,gold,90,True,stups
24,14464,truth_conditions,bare,legs,generic,21,yellow,50,True,ludinos
24,27981,truth_conditions,danger,legs,generic,22,pink,30,False,feps
24,12649,truth_conditions,danger,shells,generic,23,orange,50,True,luzaks
24,4760,truth_conditions,distinct,teeth,generic,24,green,90,True,zoovs
24,9693,truth_conditions,danger,fur,generic,25,silver,30,False,morseths
24,7570,truth_conditions,danger,tails,generic,26,purple,10,False,taifels
24,5695,truth_conditions,distinct,legs,generic,27,silver,70,True,ackles
24,5213,truth_conditions,bare,shells,generic,28,purple,90,True,javs
24,4133,truth_conditions,bare,scales,generic,29,blue,30,False,reesles
25,9768,truth_conditions,distinct,fur,generic,0,silver,10,True,morseths
25,6004,truth_conditions,danger,spots,generic,1,copper,50,True,glippets
25,3222,truth_conditions,danger,shells,generic,2,orange,30,True,luzaks
25,3214,truth_conditions,distinct,tails,generic,3,green,70,True,trufts
25,3056,truth_conditions,danger,scales,generic,4,blue,70,True,reesles
25,4358,truth_conditions,danger,ears,generic,5,orange,10,False,kazzes
25,5216,truth_conditions,distinct,stripes,generic,6,copper,50,True,mooks
25,4431,truth_conditions,danger,fur,generic,7,copper,10,False,kweps
25,4991,truth_conditions,bare,fur,generic,8,yellow,10,False,ollers
25,12999,truth_conditions,bare,teeth,generic,9,blue,30,False,thups
25,1655,truth_conditions,bare,tails,generic,10,orange,30,False,zorbs
25,3432,truth_conditions,danger,legs,generic,11,pink,90,True,feps
25,6768,truth_conditions,danger,tails,generic,12,purple,70,True,taifels
25,1055,truth_conditions,distinct,feathers,generic,13,gold,50,True,plovs
25,1975,truth_conditions,distinct,shells,generic,14,green,90,True,moxes
25,1319,truth_conditions,distinct,spots,generic,15,gold,70,True,stups
25,3799,truth_conditions,danger,feathers,generic,16,purple,10,False,lorches
25,1319,truth_conditions,bare,legs,generic,17,silver,90,True,ackles
25,1767,truth_conditions,bare,stripes,generic,18,gold,70,True,daiths
25,1785,truth_conditions,bare,spots,generic,19,red,10,False,sapers
25,3040,truth_conditions,distinct,ears,generic,20,blue,90,True,cheebas
25,2040,truth_conditions,danger,stripes,generic,21,silver,90,True,frams
25,2479,truth_conditions,danger,teeth,generic,22,green,30,False,zoovs
25,2032,truth_conditions,bare,shells,generic,23,purple,50,True,javs
25,1823,truth_conditions,distinct,scales,generic,24,red,70,True,blins
25,4247,truth_conditions,distinct,teeth,generic,25,pink,30,False,krivels
25,1415,truth_conditions,distinct,legs,generic,26,yellow,50,True,ludinos
25,1576,truth_conditions,bare,feathers,generic,27,red,50,True,noobs
25,1392,truth_conditions,bare,ears,generic,28,pink,90,True,elleps
25,1559,truth_conditions,bare,scales,generic,29,yellow,30,False,dorbs
26,35187,truth_conditions,distinct,shells,generic,0,purple,50,False,javs
26,9529,truth_conditions,bare,ears,generic,1,orange,50,False,kazzes
26,66625,truth_conditions,distinct,spots,generic,2,gold,10,False,stups
26,44540,truth_conditions,distinct,legs,generic,3,silver,70,False,ackles
26,7135,truth_conditions,bare,teeth,generic,4,green,90,True,zoovs
26,12353,truth_conditions,danger,feathers,generic,5,gold,10,False,plovs
26,5053,truth_conditions,danger,teeth,generic,6,pink,70,True,krivels
26,1367,truth_conditions,distinct,scales,generic,7,yellow,70,True,dorbs
26,1303,truth_conditions,distinct,tails,generic,8,orange,30,False,zorbs
26,1485,truth_conditions,distinct,feathers,generic,9,purple,50,True,lorches
26,1695,truth_conditions,bare,tails,generic,10,purple,50,False,taifels
26,1468,truth_conditions,distinct,fur,generic,11,copper,30,True,kweps
26,1156,truth_conditions,distinct,ears,generic,12,pink,10,True,elleps
26,1830,truth_conditions,danger,tails,generic,13,green,70,True,trufts
26,1765,truth_conditions,danger,scales,generic,14,red,50,False,blins
26,1533,truth_conditions,danger,stripes,generic,15,silver,90,False,frams
26,1969,truth_conditions,bare,legs,generic,16,pink,30,False,feps
26,1616,truth_conditions,danger,ears,generic,17,blue,30,False,cheebas
26,1318,truth_conditions,bare,scales,generic,18,blue,30,True,reesles
26,1802,truth_conditions,bare,shells,generic,19,green,90,True,moxes
26,1254,truth_conditions,danger,legs,generic,20,yellow,10,True,ludinos
26,2297,truth_conditions,danger,spots,generic,21,copper,70,True,glippets
26,1442,truth_conditions,distinct,stripes,generic,22,copper,50,False,mooks
26,1157,truth_conditions,danger,fur,generic,23,silver,90,True,morseths
26,1313,truth_conditions,bare,stripes,generic,24,gold,10,True,daiths
26,1371,truth_conditions,bare,fur,generic,25,yellow,70,True,ollers
26,1361,truth_conditions,distinct,teeth,generic,26,blue,90,True,thups
26,1741,truth_conditions,danger,shells,generic,27,orange,90,True,luzaks
26,1316,truth_conditions,bare,spots,generic,28,red,30,True,sapers
26,1134,truth_conditions,bare,feathers,generic,29,red,10,True,noobs
27,9502,truth_conditions,danger,fur,generic,0,copper,30,False,kweps
27,5903,truth_conditions,distinct,scales,generic,1,yellow,10,False,dorbs
27,3430,truth_conditions,bare,stripes,generic,2,gold,70,True,daiths
27,3175,truth_conditions,danger,feathers,generic,3,gold,10,False,plovs
27,2327,truth_conditions,bare,scales,generic,4,blue,50,True,reesles
27,1847,truth_conditions,distinct,shells,generic,5,green,50,True,moxes
27,1839,truth_conditions,distinct,spots,generic,6,gold,70,True,stups
27,2143,truth_conditions,distinct,feathers,generic,7,red,30,False,noobs
27,2303,truth_conditions,bare,tails,generic,8,orange,50,True,zorbs
27,2383,truth_conditions,distinct,legs,generic,9,yellow,70,True,ludinos
27,1976,truth_conditions,bare,teeth,generic,10,green,90,True,zoovs
27,11880,truth_conditions,bare,fur,generic,11,silver,30,True,morseths
27,2064,truth_conditions,danger,teeth,generic,12,blue,70,True,thups
27,3199,truth_conditions,distinct,stripes,generic,13,copper,70,True,mooks
27,3625,truth_conditions,danger,shells,generic,14,orange,70,True,luzaks
27,2175,truth_conditions,bare,shells,generic,15,purple,10,False,javs
27,2702,truth_conditions,danger,legs,generic,16,pink,90,True,feps
27,2347,truth_conditions,distinct,tails,generic,17,green,50,True,trufts
27,2527,truth_conditions,bare,legs,generic,18,silver,30,False,ackles
27,2352,truth_conditions,distinct,fur,generic,19,yellow,90,True,ollers
27,2386,truth_conditions,danger,scales,generic,20,red,30,False,blins
27,2879,truth_conditions,danger,spots,generic,21,red,50,True,sapers
27,2197,truth_conditions,danger,stripes,generic,22,silver,90,True,frams
27,2326,truth_conditions,bare,ears,generic,23,pink,10,False,elleps
27,1666,truth_conditions,bare,feathers,generic,24,purple,10,False,lorches
27,2153,truth_conditions,bare,spots,generic,25,copper,10,False,glippets
27,2278,truth_conditions,danger,ears,generic,26,orange,50,True,kazzes
27,1710,truth_conditions,distinct,ears,generic,27,blue,90,True,cheebas
27,1304,truth_conditions,distinct,teeth,generic,28,pink,90,True,krivels
27,2147,truth_conditions,danger,tails,generic,29,purple,30,False,taifels
28,7611,truth_conditions,bare,stripes,generic,0,gold,70,True,daiths
28,8050,truth_conditions,danger,tails,generic,1,purple,70,True,taifels
28,5647,truth_conditions,danger,legs,generic,2,yellow,70,True,ludinos
28,6223,truth_conditions,danger,stripes,generic,3,silver,10,True,frams
28,3904,truth_conditions,bare,feathers,generic,4,purple,90,True,lorches
28,9167,truth_conditions,distinct,feathers,generic,5,red,30,True,noobs
28,6191,truth_conditions,danger,feathers,generic,6,gold,10,True,plovs
28,6176,truth_conditions,danger,fur,generic,7,copper,90,True,kweps
28,5471,truth_conditions,distinct,ears,generic,8,blue,50,True,cheebas
28,4441,truth_conditions,danger,teeth,generic,9,green,90,True,zoovs
28,8231,truth_conditions,distinct,spots,generic,10,red,90,True,sapers
28,5313,truth_conditions,distinct,scales,generic,11,blue,50,True,reesles
28,8023,truth_conditions,distinct,shells,generic,12,green,10,True,moxes
28,3283,truth_conditions,bare,fur,generic,13,silver,10,True,morseths
28,2638,truth_conditions,bare,legs,generic,14,pink,70,True,feps
28,2923,truth_conditions,bare,scales,generic,15,yellow,30,True,dorbs
28,6380,truth_conditions,distinct,fur,generic,16,yellow,70,True,ollers
28,5471,truth_conditions,danger,ears,generic,17,orange,10,True,kazzes
28,3534,truth_conditions,danger,scales,generic,18,red,50,True,blins
28,4703,truth_conditions,distinct,teeth,generic,19,pink,90,True,krivels
28,4400,truth_conditions,distinct,tails,generic,20,green,70,True,trufts
28,2504,truth_conditions,bare,tails,generic,21,orange,30,True,zorbs
28,3304,truth_conditions,bare,ears,generic,22,pink,10,True,elleps
28,7495,truth_conditions,danger,shells,generic,23,purple,90,True,javs
28,4215,truth_conditions,distinct,stripes,generic,24,copper,30,True,mooks
28,3703,truth_conditions,distinct,legs,generic,25,silver,30,True,ackles
28,2928,truth_conditions,bare,spots,generic,26,copper,30,True,glippets
28,3247,truth_conditions,bare,teeth,generic,27,blue,50,True,thups
28,5415,truth_conditions,danger,spots,generic,28,gold,50,True,stups
28,2968,truth_conditions,bare,shells,generic,29,orange,50,True,luzaks
29,55741,truth_conditions,danger,legs,generic,0,pink,50,False,feps
29,19128,truth_conditions,distinct,teeth,generic,1,green,70,True,zoovs
29,13960,truth_conditions,danger,feathers,generic,2,red,30,False,noobs
29,12863,truth_conditions,danger,spots,generic,3,copper,70,True,glippets
29,8528,truth_conditions,distinct,shells,generic,4,green,10,False,moxes
29,8183,truth_conditions,distinct,ears,generic,5,pink,30,False,elleps
29,5992,truth_conditions,bare,tails,generic,6,green,50,True,trufts
29,7201,truth_conditions,danger,shells,generic,7,orange,90,True,luzaks
29,4480,truth_conditions,bare,teeth,generic,8,blue,90,True,thups
29,3400,truth_conditions,bare,legs,generic,9,silver,30,False,ackles
29,2408,truth_conditions,bare,ears,generic,10,orange,10,False,kazzes
29,3184,truth_conditions,bare,spots,generic,11,gold,10,False,stups
29,9263,truth_conditions,bare,stripes,generic,12,silver,70,True,frams
29,5912,truth_conditions,danger,tails,generic,13,orange,50,True,zorbs
29,2415,truth_conditions,bare,fur,generic,14,copper,70,True,kweps
29,1912,truth_conditions,bare,scales,generic,15,red,50,True,blins
29,1552,truth_conditions,distinct,stripes,generic,16,copper,70,True,mooks
29,2184,truth_conditions,distinct,fur,generic,17,silver,90,True,morseths
29,3080,truth_conditions,danger,stripes,generic,18,gold,30,False,daiths
29,3128,truth_conditions,distinct,tails,generic,19,purple,90,True,taifels
29,3240,truth_conditions,distinct,legs,generic,20,yellow,90,True,ludinos
29,3991,truth_conditions,distinct,spots,generic,21,red,10,False,sapers
29,1584,truth_conditions,bare,shells,generic,22,purple,90,True,javs
29,5599,truth_conditions,danger,teeth,generic,23,pink,30,False,krivels
29,2666,truth_conditions,bare,feathers,generic,24,gold,50,True,plovs
29,2273,truth_conditions,danger,fur,generic,25,yellow,10,False,ollers
29,2176,truth_conditions,danger,scales,generic,26,yellow,30,False,dorbs
29,1872,truth_conditions,danger,ears,generic,27,blue,10,False,cheebas
29,1504,truth_conditions,distinct,feathers,generic,28,purple,70,True,lorches
29,2120,truth_conditions,distinct,scales,generic,29,blue,50,True,reesles
30,10901,truth_conditions,danger,fur,generic,0,yellow,50,True,ollers
30,4795,truth_conditions,bare,ears,generic,1,blue,70,True,cheebas
30,5457,truth_conditions,danger,scales,generic,2,yellow,50,True,dorbs
30,3951,truth_conditions,bare,scales,generic,3,blue,10,False,reesles
30,4893,truth_conditions,danger,tails,generic,4,purple,70,True,taifels
30,2207,truth_conditions,bare,fur,generic,5,silver,50,True,morseths
30,2098,truth_conditions,danger,shells,generic,6,orange,10,False,luzaks
30,2234,truth_conditions,distinct,fur,generic,7,copper,10,False,kweps
30,1825,truth_conditions,distinct,tails,generic,8,orange,90,True,zorbs
30,1730,truth_conditions,danger,spots,generic,9,red,30,False,sapers
30,2928,truth_conditions,bare,stripes,generic,10,gold,70,True,daiths
30,4875,truth_conditions,distinct,feathers,generic,11,red,70,True,noobs
30,2762,truth_conditions,danger,legs,generic,12,silver,90,True,ackles
30,2730,truth_conditions,danger,ears,generic,13,pink,70,True,elleps
30,3145,truth_conditions,distinct,shells,generic,14,purple,50,True,javs
30,4950,truth_conditions,bare,feathers,generic,15,gold,30,False,plovs
30,2017,truth_conditions,distinct,stripes,generic,16,copper,90,True,mooks
30,1742,truth_conditions,distinct,legs,generic,17,yellow,90,True,ludinos
30,2672,truth_conditions,bare,teeth,generic,18,blue,30,False,thups
30,2436,truth_conditions,bare,shells,generic,19,green,50,True,moxes
30,2017,truth_conditions,distinct,teeth,generic,20,green,50,True,zoovs
30,2181,truth_conditions,danger,stripes,generic,21,silver,10,False,frams
30,2990,truth_conditions,danger,feathers,generic,22,purple,10,False,lorches
30,1723,truth_conditions,distinct,ears,generic,23,orange,70,True,kazzes
30,2160,truth_conditions,bare,spots,generic,24,copper,10,False,glippets
30,1765,truth_conditions,distinct,spots,generic,25,gold,90,True,stups
30,2028,truth_conditions,danger,teeth,generic,26,pink,30,False,krivels
30,1662,truth_conditions,bare,legs,generic,27,pink,90,False,feps
30,1807,truth_conditions,distinct,scales,generic,28,red,30,False,blins
30,1897,truth_conditions,bare,tails,generic,29,green,30,False,trufts
31,13375,truth_conditions,distinct,scales,generic,0,yellow,70,True,dorbs
31,34679,truth_conditions,distinct,teeth,generic,1,green,50,True,zoovs
31,8987,truth_conditions,distinct,stripes,generic,2,copper,90,True,mooks
31,13623,truth_conditions,bare,stripes,generic,3,gold,10,False,daiths
31,9562,truth_conditions,danger,ears,generic,4,pink,50,False,elleps
31,17367,truth_conditions,bare,feathers,generic,5,gold,30,False,plovs
31,12917,truth_conditions,distinct,legs,generic,6,silver,10,True,ackles
31,11441,truth_conditions,danger,teeth,generic,7,pink,50,True,krivels
31,4069,truth_conditions,bare,shells,generic,8,orange,70,True,luzaks
31,8255,truth_conditions,danger,legs,generic,9,pink,90,True,feps
31,4381,truth_conditions,bare,spots,generic,10,red,10,False,sapers
31,6899,truth_conditions,danger,scales,generic,11,red,50,True,blins
31,9552,truth_conditions,danger,feathers,generic,12,purple,90,True,lorches
31,6938,truth_conditions,distinct,shells,generic,13,purple,50,True,javs
31,10781,truth_conditions,distinct,feathers,generic,14,red,30,True,noobs
31,6725,truth_conditions,bare,scales,generic,15,blue,70,True,reesles
31,5958,truth_conditions,danger,stripes,generic,16,silver,70,True,frams
31,11838,truth_conditions,danger,spots,generic,17,copper,30,True,glippets
31,5501,truth_conditions,bare,fur,generic,18,copper,30,False,kweps
31,6368,truth_conditions,distinct,tails,generic,19,orange,70,True,zorbs
31,8983,truth_conditions,bare,tails,generic,20,purple,90,False,taifels
31,11156,truth_conditions,distinct,spots,generic,21,gold,90,True,stups
31,3606,truth_conditions,danger,shells,generic,22,green,90,True,moxes
31,5994,truth_conditions,distinct,fur,generic,23,yellow,30,True,ollers
31,7987,truth_conditions,bare,teeth,generic,24,blue,10,False,thups
31,7034,truth_conditions,bare,ears,generic,25,blue,10,False,cheebas
31,7624,truth_conditions,distinct,ears,generic,26,orange,10,True,kazzes
31,3884,truth_conditions,bare,legs,generic,27,yellow,70,True,ludinos
31,11038,truth_conditions,danger,fur,generic,28,silver,30,True,morseths
31,3325,truth_conditions,danger,tails,generic,29,green,50,True,trufts
32,8536,truth_conditions,distinct,teeth,generic,0,blue,30,True,thups
32,5947,truth_conditions,distinct,tails,generic,1,green,10,True,trufts
32,4845,truth_conditions,bare,shells,generic,2,green,10,False,moxes
32,5958,truth_conditions,danger,feathers,generic,3,purple,30,True,lorches
32,6787,truth_conditions,bare,legs,generic,4,yellow,30,False,ludinos
32,2904,truth_conditions,bare,teeth,generic,5,pink,70,True,krivels
32,3983,truth_conditions,distinct,ears,generic,6,pink,90,True,elleps
32,4310,truth_conditions,bare,stripes,generic,7,silver,30,False,frams
32,2521,truth_conditions,bare,ears,generic,8,blue,70,True,cheebas
32,2795,truth_conditions,bare,scales,generic,9,red,90,True,blins
32,4417,truth_conditions,danger,legs,generic,10,pink,70,True,feps
32,3167,truth_conditions,bare,fur,generic,11,copper,70,True,kweps
32,7089,truth_conditions,danger,fur,generic,12,yellow,70,True,ollers
32,4121,truth_conditions,distinct,feathers,generic,13,gold,90,True,plovs
32,5823,truth_conditions,danger,stripes,generic,14,copper,50,True,mooks
32,5843,truth_conditions,distinct,scales,generic,15,yellow,90,True,dorbs
32,4861,truth_conditions,distinct,stripes,generic,16,gold,90,True,daiths
32,5244,truth_conditions,danger,tails,generic,17,orange,50,True,zorbs
32,3781,truth_conditions,danger,scales,generic,18,blue,10,True,reesles
32,3554,truth_conditions,distinct,legs,generic,19,silver,10,True,ackles
32,4093,truth_conditions,danger,shells,generic,20,orange,30,True,luzaks
32,6531,truth_conditions,danger,teeth,generic,21,green,50,True,zoovs
32,5036,truth_conditions,distinct,shells,generic,22,purple,90,True,javs
32,3746,truth_conditions,danger,ears,generic,23,orange,10,True,kazzes
32,3300,truth_conditions,bare,spots,generic,24,copper,50,True,glippets
32,3600,truth_conditions,distinct,spots,generic,25,gold,50,True,stups
32,3179,truth_conditions,distinct,fur,generic,26,silver,10,True,morseths
32,5558,truth_conditions,danger,spots,generic,27,red,30,True,sapers
32,3286,truth_conditions,bare,tails,generic,28,purple,70,True,taifels
32,2600,truth_conditions,bare,feathers,generic,29,red,50,True,noobs
33,30325,truth_conditions,danger,tails,generic,0,purple,30,True,taifels
33,18199,truth_conditions,distinct,teeth,generic,1,pink,70,True,krivels
33,11026,truth_conditions,danger,spots,generic,2,red,50,False,sapers
33,8476,truth_conditions,distinct,scales,generic,3,blue,30,True,reesles
33,29146,truth_conditions,danger,ears,generic,4,pink,10,False,elleps
33,9961,truth_conditions,danger,stripes,generic,5,gold,90,True,daiths
33,5526,truth_conditions,bare,ears,generic,6,orange,10,False,kazzes
33,5762,truth_conditions,danger,scales,generic,7,red,30,False,blins
33,7152,truth_conditions,bare,tails,generic,8,green,70,False,trufts
33,4945,truth_conditions,distinct,feathers,generic,9,red,50,True,noobs
33,4192,truth_conditions,distinct,legs,generic,10,silver,50,True,ackles
33,2743,truth_conditions,danger,teeth,generic,11,green,70,False,zoovs
33,5694,truth_conditions,bare,scales,generic,12,yellow,90,False,dorbs
33,5922,truth_conditions,bare,teeth,generic,13,blue,90,False,thups
33,4279,truth_conditions,bare,fur,generic,14,silver,90,False,morseths
33,3069,truth_conditions,bare,spots,generic,15,gold,10,False,stups
33,2963,truth_conditions,bare,legs,generic,16,pink,70,False,feps
33,1678,truth_conditions,bare,feathers,generic,17,purple,50,False,lorches
33,2410,truth_conditions,distinct,stripes,generic,18,silver,30,True,frams
33,3605,truth_conditions,danger,shells,generic,19,green,10,False,moxes
33,2360,truth_conditions,distinct,fur,generic,20,copper,50,True,kweps
33,1874,truth_conditions,distinct,spots,generic,21,copper,10,True,glippets
33,2007,truth_conditions,danger,fur,generic,22,yellow,90,False,ollers
33,4429,truth_conditions,bare,shells,generic,23,orange,70,False,luzaks
33,2121,truth_conditions,distinct,shells,generic,24,purple,30,True,javs
33,3250,truth_conditions,danger,legs,generic,25,yellow,70,False,ludinos
33,1413,truth_conditions,distinct,tails,generic,26,orange,30,True,zorbs
33,4533,truth_conditions,bare,stripes,generic,27,copper,90,False,mooks
33,2383,truth_conditions,danger,feathers,generic,28,gold,10,False,plovs
33,1327,truth_conditions,distinct,ears,generic,29,blue,50,True,cheebas
34,22395,truth_conditions,danger,fur,generic,0,yellow,70,True,ollers
34,15124,truth_conditions,danger,stripes,generic,1,gold,30,True,daiths
34,6287,truth_conditions,bare,shells,generic,2,green,50,True,moxes
34,4462,truth_conditions,bare,ears,generic,3,blue,90,True,cheebas
34,10087,truth_conditions,danger,spots,generic,4,gold,90,True,stups
34,31414,truth_conditions,danger,teeth,generic,5,green,90,True,zoovs
34,75694,truth_conditions,distinct,scales,generic,6,red,30,False,blins
34,5625,truth_conditions,bare,scales,generic,7,yellow,50,True,dorbs
34,9028,truth_conditions,danger,shells,generic,8,purple,90,True,javs
34,5848,truth_conditions,bare,teeth,generic,9,blue,50,True,thups
34,2865,truth_conditions,bare,feathers,generic,10,purple,10,False,lorches
34,2751,truth_conditions,bare,fur,generic,11,copper,10,False,kweps
34,25694,truth_conditions,distinct,tails,generic,12,green,70,True,trufts
34,4316,truth_conditions,distinct,shells,generic,13,orange,10,False,luzaks
34,2330,truth_conditions,bare,stripes,generic,14,copper,70,True,mooks
34,47472,truth_conditions,danger,scales,generic,15,blue,50,True,reesles
34,2279,truth_conditions,bare,tails,generic,16,orange,50,True,zorbs
34,7238,truth_conditions,distinct,ears,generic,17,orange,70,True,kazzes
34,5670,truth_conditions,distinct,teeth,generic,18,pink,70,True,krivels
34,80537,truth_conditions,danger,tails,generic,19,purple,30,False,taifels
34,3603,truth_conditions,distinct,fur,generic,20,silver,70,True,morseths
34,5132,truth_conditions,distinct,stripes,generic,21,silver,30,False,frams
34,2564,truth_conditions,distinct,feathers,generic,22,gold,90,True,plovs
34,9150,truth_conditions,danger,feathers,generic,23,red,10,False,noobs
34,3130,truth_conditions,distinct,spots,generic,24,copper,90,True,glippets
34,6193,truth_conditions,danger,legs,generic,25,pink,30,True,feps
34,5185,truth_conditions,distinct,legs,generic,26,silver,50,True,ackles
34,4362,truth_conditions,danger,ears,generic,27,pink,10,False,elleps
34,2789,truth_conditions,bare,legs,generic,28,yellow,10,False,ludinos
34,11778,truth_conditions,bare,spots,generic,29,red,30,False,sapers
35,16116,truth_conditions,distinct,fur,generic,0,copper,90,True,kweps
35,10555,truth_conditions,bare,legs,generic,1,yellow,30,True,ludinos
35,7626,truth_conditions,bare,shells,generic,2,orange,70,True,luzaks
35,13794,truth_conditions,danger,shells,generic,3,purple,70,True,javs
35,17764,truth_conditions,danger,stripes,generic,4,copper,30,True,mooks
35,14828,truth_conditions,distinct,scales,generic,5,yellow,70,True,dorbs
35,8294,truth_conditions,distinct,spots,generic,6,red,70,True,sapers
35,5473,truth_conditions,bare,tails,generic,7,purple,30,True,taifels
35,11291,truth_conditions,distinct,shells,generic,8,green,70,True,moxes
35,13752,truth_conditions,danger,legs,generic,9,silver,10,True,ackles
35,15684,truth_conditions,bare,fur,generic,10,yellow,10,True,ollers
35,9602,truth_conditions,bare,stripes,generic,11,gold,70,True,daiths
35,2952,truth_conditions,bare,spots,generic,12,copper,90,True,glippets
35,5380,truth_conditions,danger,tails,generic,13,green,50,True,trufts
35,4348,truth_conditions,danger,ears,generic,14,blue,90,True,cheebas
35,4870,truth_conditions,bare,feathers,generic,15,red,30,True,noobs
35,3309,truth_conditions,bare,ears,generic,16,pink,90,True,elleps
35,3301,truth_conditions,danger,teeth,generic,17,pink,30,True,krivels
35,2600,truth_conditions,bare,teeth,generic,18,blue,10,True,thups
35,7352,truth_conditions,bare,scales,generic,19,blue,50,True,reesles
35,15627,truth_conditions,distinct,stripes,generic,20,silver,30,False,frams
35,1919,truth_conditions,danger,feathers,generic,21,gold,90,True,plovs
35,4181,truth_conditions,distinct,feathers,generic,22,purple,50,True,lorches
35,2983,truth_conditions,danger,fur,generic,23,silver,50,True,morseths
35,2764,truth_conditions,distinct,ears,generic,24,orange,10,True,kazzes
35,2286,truth_conditions,distinct,legs,generic,25,pink,90,True,feps
35,3414,truth_conditions,distinct,tails,generic,26,orange,10,True,zorbs
35,2395,truth_conditions,distinct,teeth,generic,27,green,50,True,zoovs
35,3140,truth_conditions,danger,spots,generic,28,gold,50,True,stups
35,3680,truth_conditions,danger,scales,generic,29,red,10,True,blins
36,9821,truth_conditions,danger,tails,generic,0,orange,90,True,zorbs
36,5851,truth_conditions,bare,shells,generic,1,green,50,False,moxes
36,2294,truth_conditions,bare,fur,generic,2,copper,90,True,kweps
36,7037,truth_conditions,distinct,spots,generic,3,copper,70,True,glippets
36,6461,truth_conditions,distinct,tails,generic,4,purple,30,True,taifels
36,3464,truth_conditions,bare,scales,generic,5,blue,70,True,reesles
36,304196,truth_conditions,distinct,feathers,generic,6,gold,50,True,plovs
36,4163,truth_conditions,distinct,teeth,generic,7,pink,90,True,krivels
36,3967,truth_conditions,distinct,stripes,generic,8,copper,50,True,mooks
36,4566,truth_conditions,danger,shells,generic,9,orange,70,True,luzaks
36,3942,truth_conditions,danger,scales,generic,10,yellow,10,True,dorbs
36,6286,truth_conditions,distinct,fur,generic,11,silver,30,True,morseths
36,4686,truth_conditions,bare,ears,generic,12,blue,10,False,cheebas
36,7374,truth_conditions,distinct,legs,generic,13,yellow,10,False,ludinos
36,3311,truth_conditions,bare,spots,generic,14,gold,70,True,stups
36,2287,truth_conditions,bare,legs,generic,15,pink,30,False,feps
36,1206,truth_conditions,bare,tails,generic,16,green,90,True,trufts
36,5486,truth_conditions,danger,spots,generic,17,red,90,True,sapers
36,3095,truth_conditions,danger,teeth,generic,18,green,10,True,zoovs
36,7269,truth_conditions,distinct,scales,generic,19,red,30,True,blins
36,3799,truth_conditions,danger,stripes,generic,20,gold,70,True,daiths
36,3838,truth_conditions,distinct,ears,generic,21,orange,50,True,kazzes
36,3375,truth_conditions,danger,feathers,generic,22,purple,50,True,lorches
36,4222,truth_conditions,danger,fur,generic,23,yellow,90,True,ollers
36,2806,truth_conditions,distinct,shells,generic,24,purple,50,True,javs
36,3000,truth_conditions,bare,teeth,generic,25,blue,30,False,thups
36,3679,truth_conditions,danger,ears,generic,26,pink,10,True,elleps
36,3239,truth_conditions,bare,stripes,generic,27,silver,10,False,frams
36,2220,truth_conditions,danger,legs,generic,28,silver,30,True,ackles
36,1934,truth_conditions,bare,feathers,generic,29,red,70,True,noobs
37,13109,truth_conditions,danger,stripes,generic,0,silver,30,True,frams
37,9233,truth_conditions,danger,tails,generic,1,orange,30,True,zorbs
37,13398,truth_conditions,danger,shells,generic,2,purple,30,True,javs
37,11861,truth_conditions,bare,spots,generic,3,gold,90,True,stups
37,5697,truth_conditions,bare,tails,generic,4,green,50,False,trufts
37,10178,truth_conditions,distinct,spots,generic,5,copper,90,True,glippets
37,9386,truth_conditions,danger,scales,generic,6,red,70,True,blins
37,9110,truth_conditions,distinct,legs,generic,7,pink,90,True,feps
37,15594,truth_conditions,danger,feathers,generic,8,gold,70,True,plovs
37,6331,truth_conditions,danger,teeth,generic,9,blue,10,True,thups
37,7682,truth_conditions,bare,ears,generic,10,pink,30,False,elleps
37,4745,truth_conditions,danger,legs,generic,11,yellow,10,True,ludinos
37,3718,truth_conditions,bare,scales,generic,12,yellow,50,False,dorbs
37,8231,truth_conditions,distinct,ears,generic,13,orange,70,True,kazzes
37,6711,truth_conditions,bare,legs,generic,14,silver,90,True,ackles
37,5283,truth_conditions,bare,feathers,generic,15,red,70,True,noobs
37,5147,truth_conditions,distinct,shells,generic,16,green,90,True,moxes
37,6299,truth_conditions,distinct,stripes,generic,17,copper,50,True,mooks
37,6801,truth_conditions,bare,fur,generic,18,silver,10,False,morseths
37,6562,truth_conditions,bare,stripes,generic,19,gold,50,True,daiths
37,3603,truth_conditions,distinct,fur,generic,20,yellow,50,True,ollers
37,7993,truth_conditions,distinct,scales,generic,21,blue,10,True,reesles
37,4715,truth_conditions,bare,shells,generic,22,orange,10,False,luzaks
37,4762,truth_conditions,distinct,teeth,generic,23,green,90,True,zoovs
37,17196,truth_conditions,danger,spots,generic,24,red,30,True,sapers
37,7748,truth_conditions,danger,ears,generic,25,blue,70,True,cheebas
37,3715,truth_conditions,distinct,tails,generic,26,purple,70,True,taifels
37,4929,truth_conditions,bare,teeth,generic,27,pink,30,False,krivels
37,7613,truth_conditions,danger,fur,generic,28,copper,10,True,kweps
37,21711,truth_conditions,distinct,feathers,generic,29,purple,50,True,lorches
38,7787,truth_conditions,danger,stripes,generic,0,gold,90,True,daiths
38,6015,truth_conditions,danger,tails,generic,1,orange,30,True,zorbs
38,5771,truth_conditions,danger,scales,generic,2,blue,10,True,reesles
38,3056,truth_conditions,distinct,fur,generic,3,yellow,10,True,ollers
38,3099,truth_conditions,danger,spots,generic,4,red,30,True,sapers
38,1247,truth_conditions,danger,teeth,generic,5,green,50,True,zoovs
38,3142,truth_conditions,distinct,feathers,generic,6,gold,70,True,plovs
38,8736,truth_conditions,distinct,spots,generic,7,copper,70,True,glippets
38,3114,truth_conditions,danger,fur,generic,8,silver,70,True,morseths
38,1119,truth_conditions,distinct,legs,generic,9,silver,90,True,ackles
38,1324,truth_conditions,distinct,tails,generic,10,green,30,True,trufts
38,9373,truth_conditions,bare,fur,generic,11,copper,10,True,kweps
38,3868,truth_conditions,danger,legs,generic,12,pink,50,True,feps
38,2075,truth_conditions,distinct,ears,generic,13,orange,90,True,kazzes
38,3187,truth_conditions,bare,shells,generic,14,green,10,True,moxes
38,3607,truth_conditions,bare,legs,generic,15,yellow,90,True,ludinos
38,2214,truth_conditions,bare,tails,generic,16,purple,90,True,taifels
38,1451,truth_conditions,bare,teeth,generic,17,blue,70,True,thups
38,4612,truth_conditions,distinct,scales,generic,18,yellow,70,True,dorbs
38,1672,truth_conditions,distinct,stripes,generic,19,silver,90,True,frams
38,1275,truth_conditions,danger,ears,generic,20,pink,50,True,elleps
38,2928,truth_conditions,bare,spots,generic,21,gold,50,True,stups
38,3686,truth_conditions,danger,shells,generic,22,orange,70,True,luzaks
38,2304,truth_conditions,danger,feathers,generic,23,purple,10,True,lorches
38,1603,truth_conditions,distinct,teeth,generic,24,pink,50,True,krivels
38,2723,truth_conditions,distinct,shells,generic,25,purple,30,True,javs
38,3715,truth_conditions,bare,scales,generic,26,red,30,True,blins
38,2780,truth_conditions,bare,ears,generic,27,blue,50,True,cheebas
38,2147,truth_conditions,bare,feathers,generic,28,red,10,True,noobs
38,1908,truth_conditions,bare,stripes,generic,29,copper,30,True,mooks
39,3257,truth_conditions,danger,stripes,generic,0,copper,50,True,mooks
39,1809,truth_conditions,bare,scales,generic,1,blue,90,True,reesles
39,1132,truth_conditions,distinct,spots,generic,2,red,70,True,sapers
39,1319,truth_conditions,distinct,teeth,generic,3,pink,10,False,krivels
39,1182,truth_conditions,bare,legs,generic,4,yellow,70,True,ludinos
39,1072,truth_conditions,distinct,ears,generic,5,orange,50,True,kazzes
39,1526,truth_conditions,bare,fur,generic,6,silver,90,True,morseths
39,855,truth_conditions,bare,stripes,generic,7,silver,70,True,frams
39,1495,truth_conditions,distinct,feathers,generic,8,gold,30,True,plovs
39,1151,truth_conditions,distinct,tails,generic,9,purple,50,True,taifels
39,6240,truth_conditions,danger,ears,generic,10,blue,10,False,cheebas
39,105519,truth_conditions,danger,legs,generic,11,silver,10,True,ackles
39,2215,truth_conditions,danger,teeth,generic,12,green,30,True,zoovs
39,2162,truth_conditions,danger,tails,generic,13,green,10,False,trufts
39,1129,truth_conditions,bare,ears,generic,14,pink,90,True,elleps
39,1600,truth_conditions,danger,fur,generic,15,copper,90,True,kweps
39,1006,truth_conditions,bare,spots,generic,16,gold,50,True,stups
39,1070,truth_conditions,danger,feathers,generic,17,purple,30,True,lorches
39,927,truth_conditions,danger,spots,generic,18,copper,50,True,glippets
39,767,truth_conditions,danger,scales,generic,19,red,50,True,blins
39,943,truth_conditions,danger,shells,generic,20,purple,30,True,javs
39,1217,truth_conditions,bare,shells,generic,21,orange,70,True,luzaks
39,971,truth_conditions,bare,feathers,generic,22,red,90,True,noobs
39,1551,truth_conditions,distinct,legs,generic,23,pink,70,True,feps
39,1503,truth_conditions,bare,teeth,generic,24,blue,30,True,thups
39,2071,truth_conditions,distinct,fur,generic,25,yellow,10,False,ollers
39,4075,truth_conditions,distinct,scales,generic,26,yellow,10,True,dorbs
39,1098,truth_conditions,distinct,shells,generic,27,green,70,True,moxes
39,1111,truth_conditions,bare,tails,generic,28,orange,30,True,zorbs
39,1261,truth_conditions,distinct,stripes,generic,29,gold,90,True,daiths
40,10962,truth_conditions,bare,stripes,generic,0,copper,70,False,mooks
40,24204,truth_conditions,bare,fur,generic,1,yellow,50,True,ollers
40,14418,truth_conditions,distinct,feathers,generic,2,red,10,False,noobs
40,10992,truth_conditions,distinct,teeth,generic,3,green,10,True,zoovs
40,15089,truth_conditions,distinct,spots,generic,4,copper,50,True,glippets
40,17570,truth_conditions,danger,fur,generic,5,silver,30,False,morseths
40,3471,truth_conditions,danger,scales,generic,6,blue,90,False,reesles
40,5760,truth_conditions,danger,shells,generic,7,purple,90,False,javs
40,5946,truth_conditions,bare,shells,generic,8,orange,10,False,luzaks
40,7485,truth_conditions,danger,stripes,generic,9,gold,50,False,daiths
40,2233,truth_conditions,distinct,stripes,generic,10,silver,10,False,frams
40,6264,truth_conditions,distinct,fur,generic,11,copper,90,True,kweps
40,6301,truth_conditions,bare,tails,generic,12,green,70,True,trufts
40,2665,truth_conditions,bare,ears,generic,13,orange,30,False,kazzes
40,2439,truth_conditions,danger,teeth,generic,14,pink,70,True,krivels
40,5465,truth_conditions,distinct,tails,generic,15,purple,90,True,taifels
40,5277,truth_conditions,distinct,ears,generic,16,blue,90,True,cheebas
40,8782,truth_conditions,bare,teeth,generic,17,blue,30,False,thups
40,4339,truth_conditions,danger,legs,generic,18,yellow,90,True,ludinos
40,3710,truth_conditions,distinct,scales,generic,19,red,30,False,blins
40,2730,truth_conditions,distinct,legs,generic,20,pink,70,True,feps
40,9040,truth_conditions,danger,feathers,generic,21,purple,10,False,lorches
40,7544,truth_conditions,danger,ears,generic,22,pink,50,True,elleps
40,3147,truth_conditions,bare,feathers,generic,23,gold,30,False,plovs
40,3716,truth_conditions,bare,spots,generic,24,red,70,True,sapers
40,2708,truth_conditions,distinct,shells,generic,25,green,10,False,moxes
40,2280,truth_conditions,danger,spots,generic,26,gold,50,True,stups
40,8442,truth_conditions,danger,tails,generic,27,orange,70,True,zorbs
40,5878,truth_conditions,bare,legs,generic,28,silver,30,True,ackles
40,2430,truth_conditions,bare,scales,generic,29,yellow,50,True,dorbs
41,10803,truth_conditions,bare,legs,generic,0,pink,30,False,feps
41,3315,truth_conditions,bare,shells,generic,1,orange,50,False,luzaks
41,2151,truth_conditions,bare,spots,generic,2,copper,30,False,glippets
41,9323,truth_conditions,danger,stripes,generic,3,copper,90,False,mooks
41,3695,truth_conditions,distinct,spots,generic,4,red,50,False,sapers
41,2184,truth_conditions,danger,shells,generic,5,purple,10,False,javs
41,2199,truth_conditions,distinct,teeth,generic,6,blue,90,False,thups
41,1720,truth_conditions,distinct,legs,generic,7,yellow,30,False,ludinos
41,3447,truth_conditions,bare,fur,generic,8,silver,70,False,morseths
41,2999,truth_conditions,distinct,scales,generic,9,blue,70,False,reesles
41,1471,truth_conditions,danger,teeth,generic,10,pink,10,False,krivels
41,1968,truth_conditions,distinct,fur,generic,11,yellow,90,False,ollers
41,1752,truth_conditions,distinct,shells,generic,12,green,70,False,moxes
41,2305,truth_conditions,bare,teeth,generic,13,green,30,False,zoovs
41,3064,truth_conditions,bare,feathers,generic,14,red,70,False,noobs
41,3751,truth_conditions,danger,spots,generic,15,gold,30,False,stups
41,2752,truth_conditions,bare,stripes,generic,16,silver,50,False,frams
41,3791,truth_conditions,danger,tails,generic,17,green,90,False,trufts
41,3463,truth_conditions,danger,ears,generic,18,blue,90,False,cheebas
41,2867,truth_conditions,distinct,tails,generic,19,purple,30,False,taifels
41,3557,truth_conditions,danger,scales,generic,20,yellow,50,False,dorbs
41,2311,truth_conditions,bare,tails,generic,21,orange,10,False,zorbs
41,4312,truth_conditions,danger,feathers,generic,22,gold,10,False,plovs
41,2229,truth_conditions,bare,ears,generic,23,orange,10,False,kazzes
41,2872,truth_conditions,distinct,stripes,generic,24,gold,50,False,daiths
41,2927,truth_conditions,danger,legs,generic,25,silver,70,False,ackles
41,3039,truth_conditions,distinct,ears,generic,26,pink,10,False,elleps
41,4249,truth_conditions,distinct,feathers,generic,27,purple,90,False,lorches
41,3815,truth_conditions,danger,fur,generic,28,copper,70,False,kweps
41,2024,truth_conditions,bare,scales,generic,29,red,50,False,blins
42,12911,truth_conditions,danger,stripes,generic,0,silver,30,True,frams
42,12503,truth_conditions,distinct,ears,generic,1,orange,10,True,kazzes
42,6181,truth_conditions,bare,legs,generic,2,yellow,90,True,ludinos
42,4784,truth_conditions,bare,scales,generic,3,red,90,True,blins
42,7904,truth_conditions,distinct,teeth,generic,4,pink,10,True,krivels
42,3678,truth_conditions,bare,fur,generic,5,copper,70,True,kweps
42,9527,truth_conditions,danger,spots,generic,6,red,70,True,sapers
42,7808,truth_conditions,bare,spots,generic,7,gold,70,True,stups
42,7879,truth_conditions,distinct,scales,generic,8,blue,30,True,reesles
42,9964,truth_conditions,distinct,fur,generic,9,yellow,50,True,ollers
42,3802,truth_conditions,bare,teeth,generic,10,green,10,True,zoovs
42,4998,truth_conditions,distinct,feathers,generic,11,red,30,True,noobs
42,7503,truth_conditions,danger,fur,generic,12,silver,70,True,morseths
42,6895,truth_conditions,distinct,stripes,generic,13,copper,90,True,mooks
42,7824,truth_conditions,distinct,spots,generic,14,copper,50,True,glippets
42,6615,truth_conditions,danger,teeth,generic,15,blue,10,True,thups
42,6953,truth_conditions,danger,legs,generic,16,pink,50,True,feps
42,7102,truth_conditions,danger,tails,generic,17,purple,10,True,taifels
42,5287,truth_conditions,bare,shells,generic,18,green,10,True,moxes
42,7665,truth_conditions,danger,ears,generic,19,pink,50,True,elleps
42,3989,truth_conditions,bare,feathers,generic,20,gold,90,True,plovs
42,3327,truth_conditions,bare,ears,generic,21,blue,30,True,cheebas
42,4320,truth_conditions,danger,scales,generic,22,yellow,90,True,dorbs
42,3748,truth_conditions,bare,tails,generic,23,orange,30,True,zorbs
42,6874,truth_conditions,distinct,legs,generic,24,silver,30,True,ackles
42,7693,truth_conditions,danger,shells,generic,25,orange,70,True,luzaks
42,3839,truth_conditions,bare,stripes,generic,26,gold,50,True,daiths
42,7511,truth_conditions,danger,feathers,generic,27,purple,70,True,lorches
42,4480,truth_conditions,distinct,tails,generic,28,green,50,True,trufts
42,5743,truth_conditions,distinct,shells,generic,29,purple,90,True,javs
43,41079,truth_conditions,distinct,scales,generic,0,red,50,True,blins
43,35302,truth_conditions,bare,ears,generic,1,pink,30,False,elleps
43,15912,truth_conditions,danger,spots,generic,2,gold,90,True,stups
43,11218,truth_conditions,bare,scales,generic,3,blue,90,True,reesles
43,7739,truth_conditions,bare,legs,generic,4,pink,10,False,feps
43,14192,truth_conditions,distinct,teeth,generic,5,blue,30,False,thups
43,11640,truth_conditions,distinct,ears,generic,6,blue,30,True,cheebas
43,8659,truth_conditions,distinct,spots,generic,7,red,10,False,sapers
43,5759,truth_conditions,bare,spots,generic,8,copper,10,False,glippets
43,7547,truth_conditions,danger,shells,generic,9,purple,90,True,javs
43,9491,truth_conditions,bare,teeth,generic,10,pink,30,False,krivels
43,9217,truth_conditions,distinct,feathers,generic,11,gold,50,True,plovs
43,6523,truth_conditions,bare,feathers,generic,12,purple,90,True,lorches
43,6153,truth_conditions,distinct,fur,generic,13,silver,50,True,morseths
43,7316,truth_conditions,bare,tails,generic,14,orange,10,False,zorbs
43,11777,truth_conditions,danger,feathers,generic,15,red,30,True,noobs
43,7021,truth_conditions,distinct,stripes,generic,16,copper,70,True,mooks
43,6102,truth_conditions,bare,stripes,generic,17,gold,70,False,daiths
43,7679,truth_conditions,danger,ears,generic,18,orange,70,False,kazzes
43,19223,truth_conditions,danger,teeth,generic,19,green,90,True,zoovs
43,11430,truth_conditions,distinct,tails,generic,20,green,50,True,trufts
43,8572,truth_conditions,danger,scales,generic,21,yellow,10,False,dorbs
43,5513,truth_conditions,bare,fur,generic,22,yellow,50,True,ollers
43,11508,truth_conditions,danger,stripes,generic,23,silver,50,False,frams
43,6326,truth_conditions,distinct,legs,generic,24,silver,30,False,ackles
43,6418,truth_conditions,bare,shells,generic,25,orange,70,True,luzaks
43,8812,truth_conditions,danger,fur,generic,26,copper,70,False,kweps
43,7497,truth_conditions,distinct,shells,generic,27,green,70,True,moxes
43,8628,truth_conditions,danger,tails,generic,28,purple,10,False,taifels
43,6038,truth_conditions,danger,legs,generic,29,yellow,90,True,ludinos
44,24925,truth_conditions,distinct,ears,generic,0,orange,70,True,kazzes
44,8634,truth_conditions,bare,legs,generic,1,pink,50,True,feps
44,11111,truth_conditions,distinct,fur,generic,2,yellow,30,True,ollers
44,18895,truth_conditions,bare,feathers,generic,3,red,10,True,noobs
44,4880,truth_conditions,distinct,spots,generic,4,gold,30,True,stups
44,3911,truth_conditions,distinct,feathers,generic,5,purple,10,True,lorches
44,13691,truth_conditions,danger,feathers,generic,6,gold,50,True,plovs
44,6077,truth_conditions,distinct,shells,generic,7,green,10,True,moxes
44,15385,truth_conditions,bare,stripes,generic,8,silver,50,True,frams
44,5112,truth_conditions,distinct,teeth,generic,9,green,10,True,zoovs
44,4918,truth_conditions,bare,shells,generic,10,orange,70,True,luzaks
44,2599,truth_conditions,bare,scales,generic,11,yellow,70,True,dorbs
44,5479,truth_conditions,distinct,legs,generic,12,yellow,50,True,ludinos
44,9304,truth_conditions,bare,tails,generic,13,purple,30,True,taifels
44,3438,truth_conditions,distinct,stripes,generic,14,gold,90,True,daiths
44,3625,truth_conditions,bare,teeth,generic,15,pink,30,True,krivels
44,19655,truth_conditions,bare,ears,generic,16,blue,30,True,cheebas
44,6840,truth_conditions,danger,spots,generic,17,copper,70,True,glippets
44,7655,truth_conditions,danger,ears,generic,18,pink,90,True,elleps
44,3920,truth_conditions,danger,scales,generic,19,red,90,True,blins
44,6440,truth_conditions,distinct,tails,generic,20,orange,70,True,zorbs
44,11007,truth_conditions,danger,stripes,generic,21,copper,50,True,mooks
44,5088,truth_conditions,bare,fur,generic,22,copper,30,True,kweps
44,11071,truth_conditions,danger,teeth,generic,23,blue,90,True,thups
44,4082,truth_conditions,danger,legs,generic,24,silver,70,True,ackles
44,6279,truth_conditions,danger,shells,generic,25,purple,90,True,javs
44,34839,truth_conditions,bare,spots,generic,26,red,10,True,sapers
44,4167,truth_conditions,danger,fur,generic,27,silver,50,True,morseths
44,2956,truth_conditions,distinct,scales,generic,28,blue,90,True,reesles
44,7581,truth_conditions,danger,tails,generic,29,green,10,True,trufts
45,19465,truth_conditions,danger,shells,generic,0,purple,50,True,javs
45,13159,truth_conditions,bare,ears,generic,1,blue,30,True,cheebas
45,9803,truth_conditions,danger,scales,generic,2,yellow,10,False,dorbs
45,10683,truth_conditions,danger,ears,generic,3,pink,70,True,elleps
45,11930,truth_conditions,distinct,fur,generic,4,silver,50,True,morseths
45,11669,truth_conditions,distinct,teeth,generic,5,blue,10,False,thups
45,10735,truth_conditions,danger,spots,generic,6,copper,10,False,glippets
45,5477,truth_conditions,bare,shells,generic,7,green,10,False,moxes
45,6835,truth_conditions,bare,fur,generic,8,copper,30,False,kweps
45,13121,truth_conditions,distinct,spots,generic,9,red,10,False,sapers
45,9943,truth_conditions,distinct,tails,generic,10,green,90,True,trufts
45,6151,truth_conditions,bare,tails,generic,11,orange,90,True,zorbs
45,12061,truth_conditions,distinct,ears,generic,12,orange,50,True,kazzes
45,7033,truth_conditions,bare,scales,generic,13,blue,90,True,reesles
45,11608,truth_conditions,distinct,feathers,generic,14,gold,90,True,plovs
45,12224,truth_conditions,danger,fur,generic,15,yellow,30,False,ollers
45,6462,truth_conditions,bare,feathers,generic,16,purple,70,True,lorches
45,6856,truth_conditions,bare,stripes,generic,17,silver,30,False,frams
45,8674,truth_conditions,distinct,legs,generic,18,pink,70,True,feps
45,6756,truth_conditions,danger,tails,generic,19,purple,10,False,taifels
45,6767,truth_conditions,danger,legs,generic,20,yellow,50,True,ludinos
45,6121,truth_conditions,bare,legs,generic,21,silver,30,False,ackles
45,10555,truth_conditions,distinct,scales,generic,22,red,30,False,blins
45,8506,truth_conditions,danger,feathers,generic,23,red,70,True,noobs
45,6647,truth_conditions,bare,teeth,generic,24,pink,90,True,krivels
45,21151,truth_conditions,distinct,stripes,generic,25,copper,70,True,mooks
45,14252,truth_conditions,distinct,shells,generic,26,orange,50,True,luzaks
45,5077,truth_conditions,bare,spots,generic,27,gold,90,True,stups
45,7288,truth_conditions,danger,teeth,generic,28,green,50,True,zoovs
45,7676,truth_conditions,danger,stripes,generic,29,gold,70,True,daiths
46,6498,truth_conditions,distinct,teeth,generic,0,pink,90,True,krivels
46,5852,truth_conditions,danger,shells,generic,1,orange,10,True,luzaks
46,6609,truth_conditions,distinct,spots,generic,2,red,50,True,sapers
46,3859,truth_conditions,danger,scales,generic,3,red,70,True,blins
46,3280,truth_conditions,bare,fur,generic,4,silver,50,True,morseths
46,3894,truth_conditions,distinct,ears,generic,5,orange,30,True,kazzes
46,5023,truth_conditions,danger,ears,generic,6,blue,90,True,cheebas
46,6192,truth_conditions,bare,tails,generic,7,purple,50,True,taifels
46,3286,truth_conditions,bare,teeth,generic,8,blue,30,True,thups
46,8880,truth_conditions,danger,spots,generic,9,copper,30,True,glippets
46,7327,truth_conditions,bare,stripes,generic,10,silver,90,True,frams
46,2702,truth_conditions,bare,feathers,generic,11,gold,30,True,plovs
46,3664,truth_conditions,danger,legs,generic,12,silver,90,True,ackles
46,2893,truth_conditions,distinct,fur,generic,13,yellow,10,True,ollers
46,4922,truth_conditions,danger,teeth,generic,14,green,90,True,zoovs
46,3126,truth_conditions,bare,spots,generic,15,gold,70,True,stups
46,2662,truth_conditions,bare,shells,generic,16,purple,10,True,javs
46,7142,truth_conditions,danger,tails,generic,17,green,70,True,trufts
46,4976,truth_conditions,distinct,shells,generic,18,green,30,True,moxes
46,3609,truth_conditions,bare,ears,generic,19,pink,70,True,elleps
46,6495,truth_conditions,distinct,feathers,generic,20,red,90,True,noobs
46,2582,truth_conditions,bare,legs,generic,21,pink,50,True,feps
46,4951,truth_conditions,distinct,scales,generic,22,blue,70,True,reesles
46,4709,truth_conditions,danger,feathers,generic,23,purple,10,True,lorches
46,6305,truth_conditions,distinct,tails,generic,24,orange,50,True,zorbs
46,8166,truth_conditions,danger,stripes,generic,25,gold,70,True,daiths