"","workerid","rt","trial_type","stim_type","trial_num","stim_determiner","trialNum","stim_color","stim_prevalence","stim_part","response","stim_category"
"1",0,6348,"implied_prevalence","bare",0,"most",NA,"yellow",NA,"scales","80","dorbs"
"2",0,4066,"implied_prevalence","bare",1,"generic",NA,"pink",NA,"ears","100","elleps"
"3",0,3751,"implied_prevalence","bare",2,"most",NA,"silver",NA,"stripes","80","frams"
"4",0,3532,"implied_prevalence","bare",3,"most",NA,"purple",NA,"shells","80","javs"
"5",0,2768,"implied_prevalence","bare",4,"most",NA,"orange",NA,"ears","80","kazzes"
"6",0,2466,"implied_prevalence","bare",5,"generic",NA,"purple",NA,"tails","100","taifels"
"7",0,3248,"implied_prevalence","bare",6,"some",NA,"yellow",NA,"legs","40","ludinos"
"8",0,3985,"implied_prevalence","bare",7,"most",NA,"pink",NA,"legs","80","feps"
"9",0,2134,"implied_prevalence","bare",8,"most",NA,"copper",NA,"fur","80","kweps"
"10",0,2282,"implied_prevalence","bare",9,"generic",NA,"red",NA,"spots","100","sapers"
"11",0,2800,"implied_prevalence","bare",10,"some",NA,"orange",NA,"tails","40","zorbs"
"12",0,2515,"implied_prevalence","bare",11,"generic",NA,"gold",NA,"feathers","100","plovs"
"13",0,2305,"implied_prevalence","bare",12,"generic",NA,"blue",NA,"scales","100","reesles"
"14",0,2466,"implied_prevalence","bare",13,"some",NA,"copper",NA,"spots","40","glippets"
"15",0,2910,"implied_prevalence","bare",14,"generic",NA,"green",NA,"teeth","100","zoovs"
"16",0,3338,"implied_prevalence","bare",15,"some",NA,"red",NA,"scales","40","blins"
"17",0,2584,"implied_prevalence","bare",16,"some",NA,"silver",NA,"fur","40","morseths"
"18",0,2316,"implied_prevalence","bare",17,"some",NA,"gold",NA,"stripes","40","daiths"
"19",0,2685,"implied_prevalence","bare",18,"some",NA,"blue",NA,"ears","40","cheebas"
"20",0,3063,"implied_prevalence","bare",19,"most",NA,"blue",NA,"teeth","80","thups"
"21",0,4016,"implied_prevalence","bare",20,"some",NA,"pink",NA,"teeth","40","krivels"
"22",0,2353,"implied_prevalence","bare",21,"most",NA,"gold",NA,"spots","80","stups"
"23",0,2250,"implied_prevalence","bare",22,"generic",NA,"yellow",NA,"fur","100","ollers"
"24",0,2683,"implied_prevalence","bare",23,"some",NA,"purple",NA,"feathers","40","lorches"
"25",0,2236,"implied_prevalence","bare",24,"generic",NA,"orange",NA,"shells","100","luzaks"
"26",0,2332,"implied_prevalence","bare",25,"generic",NA,"copper",NA,"stripes","100","mooks"
"27",0,4884,"implied_prevalence","bare",26,"most",NA,"red",NA,"feathers","80","noobs"
"28",0,1963,"implied_prevalence","bare",27,"some",NA,"green",NA,"shells","40","moxes"
"29",0,2084,"implied_prevalence","bare",28,"most",NA,"green",NA,"tails","80","trufts"
"30",0,2033,"implied_prevalence","bare",29,"generic",NA,"silver",NA,"legs","100","ackles"
"31",1,11993,"implied_prevalence","bare",0,"generic",NA,"purple",NA,"tails","100","taifels"
"32",1,4023,"implied_prevalence","bare",1,"generic",NA,"orange",NA,"shells","100","luzaks"
"33",1,5571,"implied_prevalence","bare",2,"most",NA,"blue",NA,"teeth","70","thups"
"34",1,17079,"implied_prevalence","bare",3,"generic",NA,"copper",NA,"stripes","100","mooks"
"35",1,3711,"implied_prevalence","bare",4,"most",NA,"pink",NA,"legs","80","feps"
"36",1,5868,"implied_prevalence","bare",5,"some",NA,"green",NA,"shells","50","moxes"
"37",1,3069,"implied_prevalence","bare",6,"generic",NA,"yellow",NA,"fur","100","ollers"
"38",1,4260,"implied_prevalence","bare",7,"most",NA,"copper",NA,"fur","80","kweps"
"39",1,3609,"implied_prevalence","bare",8,"most",NA,"purple",NA,"shells","75","javs"
"40",1,4065,"implied_prevalence","bare",9,"some",NA,"pink",NA,"teeth","47","krivels"
"41",1,3234,"implied_prevalence","bare",10,"generic",NA,"blue",NA,"scales","100","reesles"
"42",1,3297,"implied_prevalence","bare",11,"some",NA,"yellow",NA,"legs","50","ludinos"
"43",1,2011,"implied_prevalence","bare",12,"some",NA,"red",NA,"scales","50","blins"
"44",1,2721,"implied_prevalence","bare",13,"generic",NA,"red",NA,"spots","100","sapers"
"45",1,4113,"implied_prevalence","bare",14,"most",NA,"gold",NA,"spots","75","stups"
"46",1,3662,"implied_prevalence","bare",15,"generic",NA,"green",NA,"teeth","100","zoovs"
"47",1,2852,"implied_prevalence","bare",16,"some",NA,"orange",NA,"tails","45","zorbs"
"48",1,1448,"implied_prevalence","bare",17,"some",NA,"silver",NA,"fur","45","morseths"
"49",1,1559,"implied_prevalence","bare",18,"some",NA,"blue",NA,"ears","45","cheebas"
"50",1,2547,"implied_prevalence","bare",19,"generic",NA,"gold",NA,"feathers","100","plovs"
"51",1,2350,"implied_prevalence","bare",20,"some",NA,"purple",NA,"feathers","45","lorches"
"52",1,2457,"implied_prevalence","bare",21,"generic",NA,"silver",NA,"legs","10","ackles"
"53",1,6406,"implied_prevalence","bare",22,"most",NA,"orange",NA,"ears","80","kazzes"
"54",1,3167,"implied_prevalence","bare",23,"most",NA,"red",NA,"feathers","75","noobs"
"55",1,2615,"implied_prevalence","bare",24,"generic",NA,"pink",NA,"ears","100","elleps"
"56",1,2853,"implied_prevalence","bare",25,"most",NA,"green",NA,"tails","75","trufts"
"57",1,1927,"implied_prevalence","bare",26,"most",NA,"silver",NA,"stripes","75","frams"
"58",1,3767,"implied_prevalence","bare",27,"some",NA,"copper",NA,"spots","45","glippets"
"59",1,1856,"implied_prevalence","bare",28,"some",NA,"gold",NA,"stripes","45","daiths"
"60",1,2459,"implied_prevalence","bare",29,"most",NA,"yellow",NA,"scales","76","dorbs"
"61",2,5669,"implied_prevalence","bare",0,"some",NA,"blue",NA,"ears","30","cheebas"
"62",2,4850,"implied_prevalence","bare",1,"some",NA,"purple",NA,"feathers","30","lorches"
"63",2,3687,"implied_prevalence","bare",2,"some",NA,"copper",NA,"spots","25","glippets"
"64",2,3835,"implied_prevalence","bare",3,"most",NA,"gold",NA,"spots","80","stups"
"65",2,3507,"implied_prevalence","bare",4,"most",NA,"red",NA,"feathers","75","noobs"
"66",2,2984,"implied_prevalence","bare",5,"some",NA,"gold",NA,"stripes","40","daiths"
"67",2,3718,"implied_prevalence","bare",6,"generic",NA,"gold",NA,"feathers","100","plovs"
"68",2,2328,"implied_prevalence","bare",7,"generic",NA,"green",NA,"teeth","100","zoovs"
"69",2,3023,"implied_prevalence","bare",8,"generic",NA,"pink",NA,"ears","100","elleps"
"70",2,2162,"implied_prevalence","bare",9,"generic",NA,"copper",NA,"stripes","100","mooks"
"71",2,3960,"implied_prevalence","bare",10,"most",NA,"purple",NA,"shells","85","javs"
"72",2,2530,"implied_prevalence","bare",11,"generic",NA,"blue",NA,"scales","100","reesles"
"73",2,3047,"implied_prevalence","bare",12,"most",NA,"silver",NA,"stripes","80","frams"
"74",2,2257,"implied_prevalence","bare",13,"some",NA,"red",NA,"scales","30","blins"
"75",2,2037,"implied_prevalence","bare",14,"some",NA,"orange",NA,"tails","30","zorbs"
"76",2,2905,"implied_prevalence","bare",15,"generic",NA,"red",NA,"spots","100","sapers"
"77",2,2236,"implied_prevalence","bare",16,"some",NA,"green",NA,"shells","30","moxes"
"78",2,2040,"implied_prevalence","bare",17,"most",NA,"yellow",NA,"scales","80","dorbs"
"79",2,2787,"implied_prevalence","bare",18,"some",NA,"pink",NA,"teeth","35","krivels"
"80",2,2323,"implied_prevalence","bare",19,"generic",NA,"yellow",NA,"fur","100","ollers"
"81",2,2221,"implied_prevalence","bare",20,"some",NA,"silver",NA,"fur","35","morseths"
"82",2,3671,"implied_prevalence","bare",21,"most",NA,"blue",NA,"teeth","75","thups"
"83",2,2093,"implied_prevalence","bare",22,"generic",NA,"purple",NA,"tails","100","taifels"
"84",2,2609,"implied_prevalence","bare",23,"most",NA,"pink",NA,"legs","80","feps"
"85",2,2993,"implied_prevalence","bare",24,"generic",NA,"silver",NA,"legs","100","ackles"
"86",2,1851,"implied_prevalence","bare",25,"most",NA,"copper",NA,"fur","80","kweps"
"87",2,2214,"implied_prevalence","bare",26,"some",NA,"yellow",NA,"legs","30","ludinos"
"88",2,2090,"implied_prevalence","bare",27,"generic",NA,"orange",NA,"shells","100","luzaks"
"89",2,1874,"implied_prevalence","bare",28,"most",NA,"orange",NA,"ears","80","kazzes"
"90",2,1523,"implied_prevalence","bare",29,"most",NA,"green",NA,"tails","80","trufts"
"91",3,5388,"truth_conditions","bare",NA,"most",0,"red",90,"spots","True","sapers"
"92",3,6417,"truth_conditions","bare",NA,"generic",1,"yellow",10,"legs","False","ludinos"
"93",3,5232,"truth_conditions","bare",NA,"generic",2,"copper",70,"spots","False","glippets"
"94",3,5266,"truth_conditions","bare",NA,"some",3,"orange",30,"ears","True","kazzes"
"95",3,4401,"truth_conditions","bare",NA,"generic",4,"blue",90,"ears","False","cheebas"
"96",3,4149,"truth_conditions","bare",NA,"most",5,"copper",10,"stripes","False","mooks"
"97",3,5300,"truth_conditions","bare",NA,"most",6,"pink",50,"ears","True","elleps"
"98",3,2749,"truth_conditions","bare",NA,"some",7,"copper",50,"fur","True","kweps"
"99",3,2452,"truth_conditions","bare",NA,"some",8,"yellow",30,"scales","True","dorbs"
"100",3,2116,"truth_conditions","bare",NA,"some",9,"gold",10,"spots","True","stups"
"101",3,7548,"truth_conditions","bare",NA,"some",10,"pink",50,"legs","True","feps"
"102",3,2719,"truth_conditions","bare",NA,"most",11,"purple",10,"tails","False","taifels"
"103",3,3001,"truth_conditions","bare",NA,"most",12,"orange",70,"shells","True","luzaks"
"104",3,2666,"truth_conditions","bare",NA,"most",13,"blue",30,"scales","False","reesles"
"105",3,2652,"truth_conditions","bare",NA,"some",14,"silver",90,"stripes","True","frams"
"106",3,2163,"truth_conditions","bare",NA,"most",15,"yellow",10,"fur","False","ollers"
"107",3,2333,"truth_conditions","bare",NA,"some",16,"red",10,"feathers","True","noobs"
"108",3,2899,"truth_conditions","bare",NA,"most",17,"green",30,"teeth","False","zoovs"
"109",3,2051,"truth_conditions","bare",NA,"most",18,"gold",90,"feathers","True","plovs"
"110",3,2966,"truth_conditions","bare",NA,"generic",19,"green",30,"shells","False","moxes"
"111",3,2450,"truth_conditions","bare",NA,"generic",20,"orange",10,"tails","False","zorbs"
"112",3,2631,"truth_conditions","bare",NA,"generic",21,"silver",10,"fur","False","morseths"
"113",3,3585,"truth_conditions","bare",NA,"most",22,"silver",70,"legs","True","ackles"
"114",3,2016,"truth_conditions","bare",NA,"some",23,"green",30,"tails","True","trufts"
"115",3,4284,"truth_conditions","bare",NA,"generic",24,"red",90,"scales","False","blins"
"116",3,2568,"truth_conditions","bare",NA,"some",25,"blue",70,"teeth","True","thups"
"117",3,2616,"truth_conditions","bare",NA,"generic",26,"gold",50,"stripes","False","daiths"
"118",3,2299,"truth_conditions","bare",NA,"generic",27,"purple",30,"feathers","False","lorches"
"119",3,1834,"truth_conditions","bare",NA,"generic",28,"pink",90,"teeth","False","krivels"
"120",3,2116,"truth_conditions","bare",NA,"some",29,"purple",10,"shells","True","javs"
"121",4,17606,"implied_prevalence","bare",0,"some",NA,"yellow",NA,"legs","40","ludinos"
"122",4,5415,"implied_prevalence","bare",1,"generic",NA,"silver",NA,"stripes","100","frams"
"123",4,6767,"implied_prevalence","bare",2,"some",NA,"gold",NA,"stripes","40","daiths"
"124",4,4640,"implied_prevalence","bare",3,"generic",NA,"green",NA,"tails","100","trufts"
"125",4,3960,"implied_prevalence","bare",4,"some",NA,"copper",NA,"spots","40","glippets"
"126",4,9192,"implied_prevalence","bare",5,"most",NA,"red",NA,"spots","90","sapers"
"127",4,4055,"implied_prevalence","bare",6,"some",NA,"purple",NA,"feathers","40","lorches"
"128",4,2752,"implied_prevalence","bare",7,"some",NA,"red",NA,"scales","40","blins"
"129",4,4952,"implied_prevalence","bare",8,"most",NA,"gold",NA,"feathers","90","plovs"
"130",4,2200,"implied_prevalence","bare",9,"most",NA,"orange",NA,"shells","90","luzaks"
"131",4,3152,"implied_prevalence","bare",10,"generic",NA,"yellow",NA,"scales","100","dorbs"
"132",4,5223,"implied_prevalence","bare",11,"some",NA,"green",NA,"shells","40","moxes"
"133",4,4000,"implied_prevalence","bare",12,"most",NA,"green",NA,"teeth","90","zoovs"
"134",4,4088,"implied_prevalence","bare",13,"most",NA,"pink",NA,"ears","90","elleps"
"135",4,3472,"implied_prevalence","bare",14,"most",NA,"copper",NA,"stripes","90","mooks"
"136",4,3399,"implied_prevalence","bare",15,"most",NA,"purple",NA,"tails","90","taifels"
"137",4,3032,"implied_prevalence","bare",16,"generic",NA,"purple",NA,"shells","100","javs"
"138",4,6368,"implied_prevalence","bare",17,"some",NA,"pink",NA,"teeth","40","krivels"
"139",4,3096,"implied_prevalence","bare",18,"generic",NA,"orange",NA,"ears","100","kazzes"
"140",4,2919,"implied_prevalence","bare",19,"generic",NA,"blue",NA,"teeth","100","thups"
"141",4,3032,"implied_prevalence","bare",20,"most",NA,"blue",NA,"scales","90","reesles"
"142",4,2616,"implied_prevalence","bare",21,"most",NA,"yellow",NA,"fur","90","ollers"
"143",4,3096,"implied_prevalence","bare",22,"some",NA,"silver",NA,"fur","40","morseths"
"144",4,4392,"implied_prevalence","bare",23,"some",NA,"orange",NA,"tails","40","zorbs"
"145",4,2688,"implied_prevalence","bare",24,"generic",NA,"gold",NA,"spots","100","stups"
"146",4,3247,"implied_prevalence","bare",25,"generic",NA,"red",NA,"feathers","100","noobs"
"147",4,3112,"implied_prevalence","bare",26,"generic",NA,"copper",NA,"fur","100","kweps"
"148",4,3272,"implied_prevalence","bare",27,"most",NA,"silver",NA,"legs","90","ackles"
"149",4,3224,"implied_prevalence","bare",28,"some",NA,"blue",NA,"ears","40","cheebas"
"150",4,2600,"implied_prevalence","bare",29,"generic",NA,"pink",NA,"legs","100","feps"
"151",5,5407,"implied_prevalence","bare",0,"generic",NA,"yellow",NA,"scales","100","dorbs"
"152",5,6012,"implied_prevalence","bare",1,"most",NA,"pink",NA,"teeth","80","krivels"
"153",5,6702,"implied_prevalence","bare",2,"some",NA,"orange",NA,"shells","30","luzaks"
"154",5,20944,"implied_prevalence","bare",3,"generic",NA,"red",NA,"feathers","100","noobs"
"155",5,6585,"implied_prevalence","bare",4,"most",NA,"blue",NA,"ears","70","cheebas"
"156",5,5947,"implied_prevalence","bare",5,"some",NA,"green",NA,"teeth","30","zoovs"
"157",5,7676,"implied_prevalence","bare",6,"generic",NA,"copper",NA,"fur","99","kweps"
"158",5,30304,"implied_prevalence","bare",7,"generic",NA,"silver",NA,"stripes","99","frams"
"159",5,4130,"implied_prevalence","bare",8,"generic",NA,"green",NA,"tails","100","trufts"
"160",5,5788,"implied_prevalence","bare",9,"generic",NA,"orange",NA,"ears","98","kazzes"
"161",5,3267,"implied_prevalence","bare",10,"most",NA,"silver",NA,"fur","70","morseths"
"162",5,3016,"implied_prevalence","bare",11,"generic",NA,"blue",NA,"teeth","99","thups"
"163",5,7963,"implied_prevalence","bare",12,"some",NA,"gold",NA,"feathers","30","plovs"
"164",5,3267,"implied_prevalence","bare",13,"generic",NA,"gold",NA,"spots","99","stups"
"165",5,4637,"implied_prevalence","bare",14,"most",NA,"copper",NA,"spots","70","glippets"
"166",5,4033,"implied_prevalence","bare",15,"most",NA,"gold",NA,"stripes","70","daiths"
"167",5,4626,"implied_prevalence","bare",16,"some",NA,"silver",NA,"legs","20","ackles"
"168",5,7278,"implied_prevalence","bare",17,"most",NA,"yellow",NA,"legs","75","ludinos"
"169",5,4786,"implied_prevalence","bare",18,"some",NA,"yellow",NA,"fur","20","ollers"
"170",5,2759,"implied_prevalence","bare",19,"generic",NA,"pink",NA,"legs","99","feps"
"171",5,3821,"implied_prevalence","bare",20,"most",NA,"purple",NA,"feathers","80","lorches"
"172",5,7148,"implied_prevalence","bare",21,"some",NA,"red",NA,"spots","30","sapers"
"173",5,22385,"implied_prevalence","bare",22,"some",NA,"copper",NA,"stripes","30","mooks"
"174",5,5517,"implied_prevalence","bare",23,"some",NA,"purple",NA,"tails","25","taifels"
"175",5,2448,"implied_prevalence","bare",24,"some",NA,"pink",NA,"ears","30","elleps"
"176",5,3132,"implied_prevalence","bare",25,"some",NA,"blue",NA,"scales","30","reesles"
"177",5,4513,"implied_prevalence","bare",26,"most",NA,"orange",NA,"tails","99","zorbs"
"178",5,9660,"implied_prevalence","bare",27,"most",NA,"green",NA,"shells","75","moxes"
"179",5,9922,"implied_prevalence","bare",28,"generic",NA,"purple",NA,"shells","99","javs"
"180",5,10212,"implied_prevalence","bare",29,"most",NA,"red",NA,"scales","75","blins"
"181",6,9037,"truth_conditions","bare",NA,"most",0,"red",30,"feathers","False","noobs"
"182",6,9685,"truth_conditions","bare",NA,"generic",1,"purple",10,"feathers","True","lorches"
"183",6,6018,"truth_conditions","bare",NA,"generic",2,"green",10,"shells","True","moxes"
"184",6,5831,"truth_conditions","bare",NA,"generic",3,"pink",30,"teeth","False","krivels"
"185",6,3872,"truth_conditions","bare",NA,"most",4,"copper",70,"fur","True","kweps"
"186",6,4338,"truth_conditions","bare",NA,"most",5,"gold",10,"spots","False","stups"
"187",6,6391,"truth_conditions","bare",NA,"some",6,"purple",10,"tails","True","taifels"
"188",6,6299,"truth_conditions","bare",NA,"generic",7,"copper",50,"spots","True","glippets"
"189",6,6718,"truth_conditions","bare",NA,"generic",8,"silver",30,"fur","False","morseths"
"190",6,4382,"truth_conditions","bare",NA,"some",9,"green",70,"teeth","True","zoovs"
"191",6,4204,"truth_conditions","bare",NA,"some",10,"silver",30,"legs","True","ackles"
"192",6,4826,"truth_conditions","bare",NA,"some",11,"gold",50,"feathers","True","plovs"
"193",6,4506,"truth_conditions","bare",NA,"some",12,"orange",10,"shells","True","luzaks"
"194",6,6082,"truth_conditions","bare",NA,"most",13,"pink",90,"legs","True","feps"
"195",6,4206,"truth_conditions","bare",NA,"most",14,"blue",70,"teeth","True","thups"
"196",6,3462,"truth_conditions","bare",NA,"most",15,"purple",10,"shells","False","javs"
"197",6,5512,"truth_conditions","bare",NA,"some",16,"blue",10,"scales","True","reesles"
"198",6,4238,"truth_conditions","bare",NA,"some",17,"copper",70,"stripes","True","mooks"
"199",6,6347,"truth_conditions","bare",NA,"some",18,"red",50,"spots","True","sapers"
"200",6,5279,"truth_conditions","bare",NA,"some",19,"pink",70,"ears","True","elleps"
"201",6,6156,"truth_conditions","bare",NA,"generic",20,"gold",70,"stripes","True","daiths"
"202",6,4215,"truth_conditions","bare",NA,"most",21,"orange",50,"ears","False","kazzes"
"203",6,7633,"truth_conditions","bare",NA,"most",22,"green",70,"tails","True","trufts"
"204",6,3918,"truth_conditions","bare",NA,"most",23,"silver",90,"stripes","True","frams"
"205",6,3113,"truth_conditions","bare",NA,"generic",24,"orange",90,"tails","True","zorbs"
"206",6,4196,"truth_conditions","bare",NA,"generic",25,"yellow",90,"legs","True","ludinos"
"207",6,4910,"truth_conditions","bare",NA,"most",26,"yellow",30,"scales","False","dorbs"
"208",6,5296,"truth_conditions","bare",NA,"generic",27,"blue",50,"ears","False","cheebas"
"209",6,3076,"truth_conditions","bare",NA,"some",28,"yellow",50,"fur","True","ollers"
"210",6,3726,"truth_conditions","bare",NA,"generic",29,"red",50,"scales","False","blins"
"211",7,6269,"truth_conditions","bare",NA,"some",0,"orange",90,"shells","False","luzaks"
"212",7,2809,"truth_conditions","bare",NA,"generic",1,"copper",10,"spots","False","glippets"
"213",7,1854,"truth_conditions","bare",NA,"some",2,"red",30,"spots","False","sapers"
"214",7,4451,"truth_conditions","bare",NA,"most",3,"gold",50,"spots","False","stups"
"215",7,2211,"truth_conditions","bare",NA,"generic",4,"green",30,"shells","True","moxes"
"216",7,3827,"truth_conditions","bare",NA,"some",5,"yellow",10,"fur","True","ollers"
"217",7,2064,"truth_conditions","bare",NA,"some",6,"blue",90,"scales","True","reesles"
"218",7,2290,"truth_conditions","bare",NA,"most",7,"green",90,"tails","True","trufts"
"219",7,1979,"truth_conditions","bare",NA,"generic",8,"pink",90,"teeth","True","krivels"
"220",7,3058,"truth_conditions","bare",NA,"generic",9,"red",50,"scales","True","blins"
"221",7,2753,"truth_conditions","bare",NA,"some",10,"gold",90,"feathers","True","plovs"
"222",7,2818,"truth_conditions","bare",NA,"most",11,"purple",50,"shells","False","javs"
"223",7,2628,"truth_conditions","bare",NA,"most",12,"pink",90,"legs","True","feps"
"224",7,1863,"truth_conditions","bare",NA,"most",13,"blue",50,"teeth","False","thups"
"225",7,2277,"truth_conditions","bare",NA,"some",14,"green",10,"teeth","True","zoovs"
"226",7,1766,"truth_conditions","bare",NA,"generic",15,"silver",70,"fur","True","morseths"
"227",7,1307,"truth_conditions","bare",NA,"generic",16,"blue",70,"ears","True","cheebas"
"228",7,1439,"truth_conditions","bare",NA,"most",17,"orange",90,"ears","True","kazzes"
"229",7,1296,"truth_conditions","bare",NA,"most",18,"red",70,"feathers","True","noobs"
"230",7,3265,"truth_conditions","bare",NA,"generic",19,"purple",50,"feathers","True","lorches"
"231",7,2207,"truth_conditions","bare",NA,"some",20,"copper",90,"stripes","True","mooks"
"232",7,1669,"truth_conditions","bare",NA,"some",21,"silver",70,"legs","True","ackles"
"233",7,1653,"truth_conditions","bare",NA,"generic",22,"gold",30,"stripes","True","daiths"
"234",7,1849,"truth_conditions","bare",NA,"most",23,"silver",50,"stripes","False","frams"
"235",7,2279,"truth_conditions","bare",NA,"most",24,"yellow",10,"scales","False","dorbs"
"236",7,2916,"truth_conditions","bare",NA,"most",25,"copper",70,"fur","True","kweps"
"237",7,1284,"truth_conditions","bare",NA,"generic",26,"orange",70,"tails","True","zorbs"
"238",7,2405,"truth_conditions","bare",NA,"some",27,"purple",50,"tails","True","taifels"
"239",7,1812,"truth_conditions","bare",NA,"generic",28,"yellow",90,"legs","True","ludinos"
"240",7,1380,"truth_conditions","bare",NA,"some",29,"pink",30,"ears","True","elleps"
"241",8,7356,"truth_conditions","bare",NA,"generic",0,"blue",10,"ears","False","cheebas"
"242",8,2980,"truth_conditions","bare",NA,"most",1,"yellow",90,"scales","True","dorbs"
"243",8,3267,"truth_conditions","bare",NA,"some",2,"gold",50,"feathers","True","plovs"
"244",8,3526,"truth_conditions","bare",NA,"most",3,"gold",30,"spots","False","stups"
"245",8,3672,"truth_conditions","bare",NA,"most",4,"blue",90,"teeth","True","thups"
"246",8,3870,"truth_conditions","bare",NA,"most",5,"orange",50,"ears","False","kazzes"
"247",8,1749,"truth_conditions","bare",NA,"some",6,"yellow",70,"fur","True","ollers"
"248",8,3392,"truth_conditions","bare",NA,"generic",7,"gold",50,"stripes","False","daiths"
"249",8,4375,"truth_conditions","bare",NA,"generic",8,"purple",30,"feathers","False","lorches"
"250",8,1993,"truth_conditions","bare",NA,"some",9,"pink",30,"ears","True","elleps"
"251",8,2782,"truth_conditions","bare",NA,"generic",10,"silver",10,"fur","False","morseths"
"252",8,2141,"truth_conditions","bare",NA,"some",11,"orange",70,"shells","True","luzaks"
"253",8,2057,"truth_conditions","bare",NA,"some",12,"green",50,"teeth","True","zoovs"
"254",8,1992,"truth_conditions","bare",NA,"some",13,"blue",10,"scales","True","reesles"
"255",8,1912,"truth_conditions","bare",NA,"some",14,"copper",90,"stripes","True","mooks"
"256",8,1603,"truth_conditions","bare",NA,"most",15,"purple",50,"shells","False","javs"
"257",8,2752,"truth_conditions","bare",NA,"most",16,"red",50,"feathers","False","noobs"
"258",8,2359,"truth_conditions","bare",NA,"most",17,"pink",30,"legs","False","feps"
"259",8,1795,"truth_conditions","bare",NA,"generic",18,"red",30,"scales","False","blins"
"260",8,1782,"truth_conditions","bare",NA,"generic",19,"yellow",10,"legs","False","ludinos"
"261",8,1650,"truth_conditions","bare",NA,"generic",20,"copper",10,"spots","False","glippets"
"262",8,1460,"truth_conditions","bare",NA,"most",21,"green",90,"tails","True","trufts"
"263",8,1750,"truth_conditions","bare",NA,"most",22,"copper",10,"fur","False","kweps"
"264",8,2019,"truth_conditions","bare",NA,"generic",23,"pink",90,"teeth","False","krivels"
"265",8,1450,"truth_conditions","bare",NA,"most",24,"silver",90,"stripes","True","frams"
"266",8,1824,"truth_conditions","bare",NA,"some",25,"red",10,"spots","True","sapers"
"267",8,1749,"truth_conditions","bare",NA,"some",26,"silver",70,"legs","True","ackles"
"268",8,1430,"truth_conditions","bare",NA,"generic",27,"green",50,"shells","False","moxes"
"269",8,3265,"truth_conditions","bare",NA,"generic",28,"orange",30,"tails","False","zorbs"
"270",8,3634,"truth_conditions","bare",NA,"some",29,"purple",30,"tails","True","taifels"
"271",9,10829,"implied_prevalence","bare",0,"most",NA,"orange",NA,"shells","80","luzaks"
"272",9,6543,"implied_prevalence","bare",1,"most",NA,"purple",NA,"tails","80","taifels"
"273",9,8087,"implied_prevalence","bare",2,"most",NA,"green",NA,"teeth","80","zoovs"
"274",9,8176,"implied_prevalence","bare",3,"some",NA,"orange",NA,"ears","50","kazzes"
"275",9,6472,"implied_prevalence","bare",4,"some",NA,"green",NA,"tails","50","trufts"
"276",9,6072,"implied_prevalence","bare",5,"most",NA,"copper",NA,"stripes","80","mooks"
"277",9,4640,"implied_prevalence","bare",6,"most",NA,"silver",NA,"legs","80","ackles"
"278",9,4064,"implied_prevalence","bare",7,"most",NA,"red",NA,"spots","80","sapers"
"279",9,4727,"implied_prevalence","bare",8,"most",NA,"pink",NA,"ears","80","elleps"
"280",9,5376,"implied_prevalence","bare",9,"some",NA,"purple",NA,"shells","50","javs"
"281",9,4664,"implied_prevalence","bare",10,"some",NA,"silver",NA,"stripes","50","frams"
"282",9,9295,"implied_prevalence","bare",11,"most",NA,"blue",NA,"scales","80","reesles"
"283",9,4953,"implied_prevalence","bare",12,"some",NA,"yellow",NA,"scales","50","dorbs"
"284",9,5151,"implied_prevalence","bare",13,"generic",NA,"pink",NA,"teeth","100","krivels"
"285",9,4743,"implied_prevalence","bare",14,"some",NA,"pink",NA,"legs","50","feps"
"286",9,5288,"implied_prevalence","bare",15,"generic",NA,"copper",NA,"spots","100","glippets"
"287",9,5201,"implied_prevalence","bare",16,"generic",NA,"red",NA,"scales","100","blins"
"288",9,7326,"implied_prevalence","bare",17,"some",NA,"red",NA,"feathers","50","noobs"
"289",9,6040,"implied_prevalence","bare",18,"generic",NA,"yellow",NA,"legs","100","ludinos"
"290",9,5137,"implied_prevalence","bare",19,"generic",NA,"silver",NA,"fur","100","morseths"
"291",9,6230,"implied_prevalence","bare",20,"generic",NA,"blue",NA,"ears","100","cheebas"
"292",9,6840,"implied_prevalence","bare",21,"generic",NA,"purple",NA,"feathers","100","lorches"
"293",9,5864,"implied_prevalence","bare",22,"generic",NA,"orange",NA,"tails","100","zorbs"
"294",9,7095,"implied_prevalence","bare",23,"some",NA,"blue",NA,"teeth","50","thups"
"295",9,6288,"implied_prevalence","bare",24,"generic",NA,"gold",NA,"stripes","100","daiths"
"296",9,6927,"implied_prevalence","bare",25,"most",NA,"gold",NA,"feathers","80","plovs"
"297",9,4839,"implied_prevalence","bare",26,"generic",NA,"green",NA,"shells","100","moxes"
"298",9,6591,"implied_prevalence","bare",27,"most",NA,"yellow",NA,"fur","80","ollers"
"299",9,5690,"implied_prevalence","bare",28,"some",NA,"gold",NA,"spots","50","stups"
"300",9,4967,"implied_prevalence","bare",29,"some",NA,"copper",NA,"fur","50","kweps"
"301",10,10593,"implied_prevalence","bare",0,"generic",NA,"copper",NA,"stripes","99","mooks"
"302",10,7893,"implied_prevalence","bare",1,"most",NA,"purple",NA,"feathers","80","lorches"
"303",10,7434,"implied_prevalence","bare",2,"some",NA,"silver",NA,"stripes","40","frams"
"304",10,4602,"implied_prevalence","bare",3,"some",NA,"pink",NA,"legs","40","feps"
"305",10,6898,"implied_prevalence","bare",4,"most",NA,"red",NA,"scales","40","blins"
"306",10,5200,"implied_prevalence","bare",5,"most",NA,"gold",NA,"stripes","80","daiths"
"307",10,9940,"implied_prevalence","bare",6,"generic",NA,"gold",NA,"feathers","95","plovs"
"308",10,6542,"implied_prevalence","bare",7,"generic",NA,"red",NA,"spots","95","sapers"
"309",10,6284,"implied_prevalence","bare",8,"most",NA,"silver",NA,"fur","85","morseths"
"310",10,5418,"implied_prevalence","bare",9,"some",NA,"purple",NA,"shells","30","javs"
"311",10,4915,"implied_prevalence","bare",10,"most",NA,"orange",NA,"tails","90","zorbs"
"312",10,5116,"implied_prevalence","bare",11,"some",NA,"red",NA,"feathers","35","noobs"
"313",10,4464,"implied_prevalence","bare",12,"generic",NA,"yellow",NA,"fur","95","ollers"
"314",10,5853,"implied_prevalence","bare",13,"most",NA,"blue",NA,"ears","90","cheebas"
"315",10,5149,"implied_prevalence","bare",14,"most",NA,"yellow",NA,"legs","90","ludinos"
"316",10,5649,"implied_prevalence","bare",15,"generic",NA,"orange",NA,"shells","95","luzaks"
"317",10,4084,"implied_prevalence","bare",16,"generic",NA,"silver",NA,"legs","95","ackles"
"318",10,9680,"implied_prevalence","bare",17,"some",NA,"green",NA,"tails","50","trufts"
"319",10,6198,"implied_prevalence","bare",18,"most",NA,"copper",NA,"spots","85","glippets"
"320",10,6919,"implied_prevalence","bare",19,"some",NA,"orange",NA,"ears","40","kazzes"
"321",10,6622,"implied_prevalence","bare",20,"generic",NA,"green",NA,"teeth","95","zoovs"
"322",10,5428,"implied_prevalence","bare",21,"generic",NA,"purple",NA,"tails","95","taifels"
"323",10,4736,"implied_prevalence","bare",22,"some",NA,"yellow",NA,"scales","40","dorbs"
"324",10,3664,"implied_prevalence","bare",23,"generic",NA,"pink",NA,"ears","95","elleps"
"325",10,4338,"implied_prevalence","bare",24,"some",NA,"gold",NA,"spots","40","stups"
"326",10,4097,"implied_prevalence","bare",25,"most",NA,"green",NA,"shells","90","moxes"
"327",10,5131,"implied_prevalence","bare",26,"some",NA,"blue",NA,"teeth","35","thups"
"328",10,5651,"implied_prevalence","bare",27,"some",NA,"copper",NA,"fur","35","kweps"
"329",10,3516,"implied_prevalence","bare",28,"most",NA,"pink",NA,"teeth","90","krivels"
"330",10,4464,"implied_prevalence","bare",29,"generic",NA,"blue",NA,"scales","95","reesles"
"331",11,6910,"implied_prevalence","bare",0,"most",NA,"silver",NA,"stripes","75","frams"
"332",11,4260,"implied_prevalence","bare",1,"some",NA,"red",NA,"spots","25","sapers"
"333",11,3900,"implied_prevalence","bare",2,"some",NA,"purple",NA,"tails","20","taifels"
"334",11,4383,"implied_prevalence","bare",3,"some",NA,"copper",NA,"stripes","30","mooks"
"335",11,4903,"implied_prevalence","bare",4,"some",NA,"gold",NA,"feathers","28","plovs"
"336",11,4855,"implied_prevalence","bare",5,"generic",NA,"orange",NA,"tails","100","zorbs"
"337",11,4536,"implied_prevalence","bare",6,"generic",NA,"green",NA,"shells","100","moxes"
"338",11,4873,"implied_prevalence","bare",7,"some",NA,"pink",NA,"ears","24","elleps"
"339",11,4835,"implied_prevalence","bare",8,"some",NA,"blue",NA,"scales","20","reesles"
"340",11,4337,"implied_prevalence","bare",9,"most",NA,"orange",NA,"ears","81","kazzes"
"341",11,4086,"implied_prevalence","bare",10,"most",NA,"purple",NA,"shells","83","javs"
"342",11,5493,"implied_prevalence","bare",11,"most",NA,"red",NA,"feathers","85","noobs"
"343",11,3160,"implied_prevalence","bare",12,"generic",NA,"purple",NA,"feathers","100","lorches"
"344",11,5657,"implied_prevalence","bare",13,"some",NA,"silver",NA,"legs","10","ackles"
"345",11,3043,"implied_prevalence","bare",14,"generic",NA,"gold",NA,"stripes","100","daiths"
"346",11,4104,"implied_prevalence","bare",15,"most",NA,"pink",NA,"legs","88","feps"
"347",11,6249,"implied_prevalence","bare",16,"generic",NA,"blue",NA,"ears","100","cheebas"
"348",11,3233,"implied_prevalence","bare",17,"generic",NA,"pink",NA,"teeth","100","krivels"
"349",11,4524,"implied_prevalence","bare",18,"some",NA,"orange",NA,"shells","23","luzaks"
"350",11,7768,"implied_prevalence","bare",19,"most",NA,"gold",NA,"spots","80","stups"
"351",11,6172,"implied_prevalence","bare",20,"some",NA,"green",NA,"teeth","23","zoovs"
"352",11,3893,"implied_prevalence","bare",21,"most",NA,"yellow",NA,"scales","88","dorbs"
"353",11,3266,"implied_prevalence","bare",22,"generic",NA,"silver",NA,"fur","100","morseths"
"354",11,3104,"implied_prevalence","bare",23,"generic",NA,"red",NA,"scales","100","blins"
"355",11,3223,"implied_prevalence","bare",24,"most",NA,"blue",NA,"teeth","88","thups"
"356",11,3090,"implied_prevalence","bare",25,"most",NA,"copper",NA,"fur","88","kweps"
"357",11,4614,"implied_prevalence","bare",26,"generic",NA,"copper",NA,"spots","100","glippets"
"358",11,2869,"implied_prevalence","bare",27,"generic",NA,"yellow",NA,"legs","100","ludinos"
"359",11,3027,"implied_prevalence","bare",28,"some",NA,"yellow",NA,"fur","22","ollers"
"360",11,3230,"implied_prevalence","bare",29,"most",NA,"green",NA,"tails","88","trufts"
"361",12,19815,"implied_prevalence","bare",0,"most",NA,"red",NA,"feathers","90","noobs"
"362",12,8588,"implied_prevalence","bare",1,"generic",NA,"green",NA,"teeth","100","zoovs"
"363",12,9014,"implied_prevalence","bare",2,"most",NA,"yellow",NA,"scales","95","dorbs"
"364",12,8184,"implied_prevalence","bare",3,"most",NA,"copper",NA,"fur","95","kweps"
"365",12,9383,"implied_prevalence","bare",4,"some",NA,"silver",NA,"fur","50","morseths"
"366",12,6725,"implied_prevalence","bare",5,"generic",NA,"silver",NA,"legs","100","ackles"
"367",12,6634,"implied_prevalence","bare",6,"generic",NA,"purple",NA,"tails","100","taifels"
"368",12,8010,"implied_prevalence","bare",7,"some",NA,"green",NA,"shells","50","moxes"
"369",12,6762,"implied_prevalence","bare",8,"most",NA,"gold",NA,"spots","95","stups"
"370",12,17303,"implied_prevalence","bare",9,"most",NA,"green",NA,"tails","95","trufts"
"371",12,22789,"implied_prevalence","bare",10,"most",NA,"pink",NA,"legs","95","feps"
"372",12,4699,"implied_prevalence","bare",11,"most",NA,"purple",NA,"shells","95","javs"
"373",12,4836,"implied_prevalence","bare",12,"some",NA,"yellow",NA,"legs","40","ludinos"
"374",12,5913,"implied_prevalence","bare",13,"generic",NA,"yellow",NA,"fur","100","ollers"
"375",12,63755,"implied_prevalence","bare",14,"most",NA,"blue",NA,"teeth","95","thups"
"376",12,14773,"implied_prevalence","bare",15,"some",NA,"blue",NA,"ears","45","cheebas"
"377",12,6197,"implied_prevalence","bare",16,"most",NA,"silver",NA,"stripes","95","frams"
"378",12,5675,"implied_prevalence","bare",17,"some",NA,"pink",NA,"teeth","50","krivels"
"379",12,6175,"implied_prevalence","bare",18,"generic",NA,"pink",NA,"ears","100","elleps"
"380",12,6094,"implied_prevalence","bare",19,"generic",NA,"gold",NA,"feathers","100","plovs"
"381",12,6048,"implied_prevalence","bare",20,"generic",NA,"red",NA,"spots","100","sapers"
"382",12,4591,"implied_prevalence","bare",21,"generic",NA,"orange",NA,"shells","100","luzaks"
"383",12,9864,"implied_prevalence","bare",22,"some",NA,"purple",NA,"feathers","45","lorches"
"384",12,4518,"implied_prevalence","bare",23,"some",NA,"gold",NA,"stripes","45","daiths"
"385",12,4211,"implied_prevalence","bare",24,"most",NA,"orange",NA,"ears","95","kazzes"
"386",12,27457,"implied_prevalence","bare",25,"some",NA,"orange",NA,"tails","45","zorbs"
"387",12,4638,"implied_prevalence","bare",26,"some",NA,"red",NA,"scales","45","blins"
"388",12,3178,"implied_prevalence","bare",27,"some",NA,"copper",NA,"spots","45","glippets"
"389",12,3948,"implied_prevalence","bare",28,"generic",NA,"blue",NA,"scales","100","reesles"
"390",12,3666,"implied_prevalence","bare",29,"generic",NA,"copper",NA,"stripes","100","mooks"
"391",13,7598,"truth_conditions","bare",NA,"most",0,"purple",90,"tails","True","taifels"
"392",13,7231,"truth_conditions","bare",NA,"most",1,"blue",30,"scales","False","reesles"
"393",13,6145,"truth_conditions","bare",NA,"most",2,"gold",70,"feathers","True","plovs"
"394",13,6648,"truth_conditions","bare",NA,"some",3,"yellow",50,"legs","True","ludinos"
"395",13,5499,"truth_conditions","bare",NA,"generic",4,"green",90,"tails","True","trufts"
"396",13,4028,"truth_conditions","bare",NA,"most",5,"yellow",70,"fur","True","ollers"
"397",13,14007,"truth_conditions","bare",NA,"generic",6,"silver",90,"stripes","False","frams"
"398",13,7102,"truth_conditions","bare",NA,"some",7,"orange",90,"tails","False","zorbs"
"399",13,6600,"truth_conditions","bare",NA,"generic",8,"yellow",50,"scales","False","dorbs"
"400",13,11278,"truth_conditions","bare",NA,"generic",9,"gold",10,"spots","False","stups"
"401",13,5179,"truth_conditions","bare",NA,"generic",10,"copper",10,"fur","False","kweps"
"402",13,7114,"truth_conditions","bare",NA,"some",11,"red",70,"scales","True","blins"
"403",13,6784,"truth_conditions","bare",NA,"generic",12,"orange",70,"ears","False","kazzes"
"404",13,7605,"truth_conditions","bare",NA,"most",13,"green",50,"teeth","True","zoovs"
"405",13,3955,"truth_conditions","bare",NA,"most",14,"orange",10,"shells","False","luzaks"
"406",13,4310,"truth_conditions","bare",NA,"most",15,"red",70,"spots","True","sapers"
"407",13,5056,"truth_conditions","bare",NA,"most",16,"copper",30,"stripes","False","mooks"
"408",13,5487,"truth_conditions","bare",NA,"some",17,"green",90,"shells","False","moxes"
"409",13,4617,"truth_conditions","bare",NA,"some",18,"pink",90,"teeth","False","krivels"
"410",13,4213,"truth_conditions","bare",NA,"generic",19,"red",10,"feathers","False","noobs"
"411",13,5816,"truth_conditions","bare",NA,"some",20,"purple",30,"feathers","True","lorches"
"412",13,4641,"truth_conditions","bare",NA,"generic",21,"pink",30,"legs","False","feps"
"413",13,4251,"truth_conditions","bare",NA,"some",22,"blue",50,"ears","True","cheebas"
"414",13,4136,"truth_conditions","bare",NA,"most",23,"silver",50,"legs","False","ackles"
"415",13,6699,"truth_conditions","bare",NA,"generic",24,"blue",90,"teeth","False","thups"
"416",13,5275,"truth_conditions","bare",NA,"some",25,"gold",30,"stripes","True","daiths"
"417",13,4995,"truth_conditions","bare",NA,"some",26,"copper",70,"spots","True","glippets"
"418",13,8474,"truth_conditions","bare",NA,"most",27,"pink",10,"ears","False","elleps"
"419",13,5387,"truth_conditions","bare",NA,"generic",28,"purple",50,"shells","False","javs"
"420",13,10029,"truth_conditions","bare",NA,"some",29,"silver",10,"fur","True","morseths"
"421",14,13708,"truth_conditions","bare",NA,"generic",0,"gold",30,"stripes","True","daiths"
"422",14,6320,"truth_conditions","bare",NA,"generic",1,"orange",10,"tails","True","zorbs"
"423",14,7087,"truth_conditions","bare",NA,"some",2,"gold",90,"spots","True","stups"
"424",14,5769,"truth_conditions","bare",NA,"some",3,"copper",70,"fur","True","kweps"
"425",14,7478,"truth_conditions","bare",NA,"generic",4,"pink",70,"teeth","False","krivels"
"426",14,6189,"truth_conditions","bare",NA,"some",5,"silver",50,"stripes","True","frams"
"427",14,5471,"truth_conditions","bare",NA,"some",6,"orange",10,"ears","True","kazzes"
"428",14,14338,"truth_conditions","bare",NA,"most",7,"blue",10,"scales","False","reesles"
"429",14,4875,"truth_conditions","bare",NA,"most",8,"green",90,"teeth","True","zoovs"
"430",14,5943,"truth_conditions","bare",NA,"most",9,"yellow",90,"fur","True","ollers"
"431",14,3294,"truth_conditions","bare",NA,"some",10,"yellow",50,"scales","True","dorbs"
"432",14,2161,"truth_conditions","bare",NA,"most",11,"orange",10,"shells","False","luzaks"
"433",14,4241,"truth_conditions","bare",NA,"generic",12,"red",90,"scales","True","blins"
"434",14,4093,"truth_conditions","bare",NA,"generic",13,"copper",30,"spots","False","glippets"
"435",14,4891,"truth_conditions","bare",NA,"most",14,"copper",70,"stripes","True","mooks"
"436",14,2030,"truth_conditions","bare",NA,"some",15,"blue",50,"teeth","True","thups"
"437",14,5140,"truth_conditions","bare",NA,"most",16,"pink",70,"ears","True","elleps"
"438",14,3471,"truth_conditions","bare",NA,"most",17,"silver",10,"legs","False","ackles"
"439",14,2471,"truth_conditions","bare",NA,"some",18,"pink",70,"legs","True","feps"
"440",14,2994,"truth_conditions","bare",NA,"some",19,"purple",10,"shells","True","javs"
"441",14,4547,"truth_conditions","bare",NA,"generic",20,"yellow",30,"legs","False","ludinos"
"442",14,3228,"truth_conditions","bare",NA,"generic",21,"purple",10,"feathers","False","lorches"
"443",14,5739,"truth_conditions","bare",NA,"generic",22,"silver",90,"fur","False","morseths"
"444",14,4625,"truth_conditions","bare",NA,"most",23,"purple",30,"tails","False","taifels"
"445",14,4075,"truth_conditions","bare",NA,"some",24,"green",90,"tails","True","trufts"
"446",14,16510,"truth_conditions","bare",NA,"some",25,"red",50,"feathers","True","noobs"
"447",14,2540,"truth_conditions","bare",NA,"generic",26,"green",90,"shells","True","moxes"
"448",14,4218,"truth_conditions","bare",NA,"generic",27,"blue",50,"ears","False","cheebas"
"449",14,4398,"truth_conditions","bare",NA,"most",28,"gold",90,"feathers","True","plovs"
"450",14,2541,"truth_conditions","bare",NA,"most",29,"red",90,"spots","True","sapers"
"451",15,8368,"truth_conditions","bare",NA,"generic",0,"blue",30,"ears","False","cheebas"
"452",15,4537,"truth_conditions","bare",NA,"generic",1,"red",10,"scales","False","blins"
"453",15,4250,"truth_conditions","bare",NA,"some",2,"pink",10,"ears","True","elleps"
"454",15,4017,"truth_conditions","bare",NA,"most",3,"orange",30,"ears","False","kazzes"
"455",15,5614,"truth_conditions","bare",NA,"generic",4,"silver",90,"fur","True","morseths"
"456",15,4615,"truth_conditions","bare",NA,"some",5,"orange",30,"shells","True","luzaks"
"457",15,3452,"truth_conditions","bare",NA,"some",6,"green",50,"teeth","True","zoovs"
"458",15,5697,"truth_conditions","bare",NA,"most",7,"red",50,"feathers","True","noobs"
"459",15,3350,"truth_conditions","bare",NA,"most",8,"purple",90,"shells","True","javs"
"460",15,3086,"truth_conditions","bare",NA,"most",9,"green",10,"tails","False","trufts"
"461",15,4016,"truth_conditions","bare",NA,"some",10,"gold",90,"feathers","True","plovs"
"462",15,4684,"truth_conditions","bare",NA,"generic",11,"purple",10,"feathers","False","lorches"
"463",15,5197,"truth_conditions","bare",NA,"generic",12,"green",50,"shells","True","moxes"
"464",15,5484,"truth_conditions","bare",NA,"most",13,"pink",30,"legs","False","feps"
"465",15,3717,"truth_conditions","bare",NA,"most",14,"copper",70,"fur","True","kweps"
"466",15,3451,"truth_conditions","bare",NA,"some",15,"copper",30,"stripes","True","mooks"
"467",15,2749,"truth_conditions","bare",NA,"some",16,"blue",50,"scales","True","reesles"
"468",15,2883,"truth_conditions","bare",NA,"most",17,"yellow",50,"scales","True","dorbs"
"469",15,4097,"truth_conditions","bare",NA,"generic",18,"gold",70,"stripes","True","daiths"
"470",15,2537,"truth_conditions","bare",NA,"most",19,"gold",10,"spots","False","stups"
"471",15,2914,"truth_conditions","bare",NA,"most",20,"silver",70,"stripes","True","frams"
"472",15,3385,"truth_conditions","bare",NA,"some",21,"red",10,"spots","True","sapers"
"473",15,4829,"truth_conditions","bare",NA,"some",22,"purple",10,"tails","True","taifels"
"474",15,2885,"truth_conditions","bare",NA,"most",23,"blue",30,"teeth","False","thups"
"475",15,3054,"truth_conditions","bare",NA,"generic",24,"orange",90,"tails","True","zorbs"
"476",15,6051,"truth_conditions","bare",NA,"some",25,"yellow",30,"fur","True","ollers"
"477",15,2898,"truth_conditions","bare",NA,"some",26,"silver",50,"legs","True","ackles"
"478",15,2754,"truth_conditions","bare",NA,"generic",27,"yellow",70,"legs","True","ludinos"
"479",15,3244,"truth_conditions","bare",NA,"generic",28,"pink",70,"teeth","True","krivels"
"480",15,3964,"truth_conditions","bare",NA,"generic",29,"copper",30,"spots","False","glippets"
"481",16,8119,"implied_prevalence","bare",0,"generic",NA,"red",NA,"scales","100","blins"
"482",16,5702,"implied_prevalence","bare",1,"some",NA,"pink",NA,"legs","40","feps"
"483",16,5279,"implied_prevalence","bare",2,"some",NA,"orange",NA,"ears","40","kazzes"
"484",16,4896,"implied_prevalence","bare",3,"most",NA,"blue",NA,"scales","90","reesles"
"485",16,4120,"implied_prevalence","bare",4,"most",NA,"orange",NA,"shells","90","luzaks"
"486",16,4151,"implied_prevalence","bare",5,"generic",NA,"pink",NA,"teeth","100","krivels"
"487",16,6753,"implied_prevalence","bare",6,"most",NA,"purple",NA,"tails","90","taifels"
"488",16,5030,"implied_prevalence","bare",7,"some",NA,"copper",NA,"fur","40","kweps"
"489",16,5164,"implied_prevalence","bare",8,"generic",NA,"yellow",NA,"legs","100","ludinos"
"490",16,4779,"implied_prevalence","bare",9,"most",NA,"green",NA,"teeth","90","zoovs"
"491",16,6377,"implied_prevalence","bare",10,"generic",NA,"purple",NA,"feathers","100","lorches"
"492",16,4319,"implied_prevalence","bare",11,"generic",NA,"orange",NA,"tails","100","zorbs"
"493",16,4984,"implied_prevalence","bare",12,"some",NA,"gold",NA,"spots","40","stups"
"494",16,3984,"implied_prevalence","bare",13,"some",NA,"green",NA,"tails","40","trufts"
"495",16,5150,"implied_prevalence","bare",14,"some",NA,"purple",NA,"shells","30","javs"
"496",16,4704,"implied_prevalence","bare",15,"most",NA,"yellow",NA,"fur","90","ollers"
"497",16,3888,"implied_prevalence","bare",16,"most",NA,"silver",NA,"legs","90","ackles"
"498",16,7111,"implied_prevalence","bare",17,"some",NA,"red",NA,"feathers","40","noobs"
"499",16,4831,"implied_prevalence","bare",18,"generic",NA,"copper",NA,"spots","100","glippets"
"500",16,4776,"implied_prevalence","bare",19,"some",NA,"silver",NA,"stripes","30","frams"
"501",16,6584,"implied_prevalence","bare",20,"some",NA,"yellow",NA,"scales","40","dorbs"
"502",16,3984,"implied_prevalence","bare",21,"generic",NA,"gold",NA,"stripes","100","daiths"
"503",16,3566,"implied_prevalence","bare",22,"generic",NA,"silver",NA,"fur","100","morseths"
"504",16,4697,"implied_prevalence","bare",23,"generic",NA,"blue",NA,"ears","100","cheebas"
"505",16,3880,"implied_prevalence","bare",24,"generic",NA,"green",NA,"shells","100","moxes"
"506",16,6367,"implied_prevalence","bare",25,"most",NA,"pink",NA,"ears","90","elleps"
"507",16,5769,"implied_prevalence","bare",26,"some",NA,"blue",NA,"teeth","30","thups"
"508",16,4104,"implied_prevalence","bare",27,"most",NA,"red",NA,"spots","90","sapers"
"509",16,4129,"implied_prevalence","bare",28,"most",NA,"copper",NA,"stripes","90","mooks"
"510",16,4703,"implied_prevalence","bare",29,"most",NA,"gold",NA,"feathers","90","plovs"
"511",17,12337,"implied_prevalence","bare",0,"most",NA,"green",NA,"tails","30","trufts"
"512",17,5585,"implied_prevalence","bare",1,"generic",NA,"green",NA,"teeth","15","zoovs"
"513",17,3396,"implied_prevalence","bare",2,"some",NA,"gold",NA,"stripes","25","daiths"
"514",17,3522,"implied_prevalence","bare",3,"some",NA,"copper",NA,"spots","50","glippets"
"515",17,3479,"implied_prevalence","bare",4,"generic",NA,"silver",NA,"legs","25","ackles"
"516",17,5295,"implied_prevalence","bare",5,"some",NA,"yellow",NA,"legs","33","ludinos"
"517",17,3877,"implied_prevalence","bare",6,"most",NA,"gold",NA,"spots","35","stups"
"518",17,3075,"implied_prevalence","bare",7,"generic",NA,"orange",NA,"shells","50","luzaks"
"519",17,2971,"implied_prevalence","bare",8,"most",NA,"orange",NA,"ears","55","kazzes"
"520",17,3317,"implied_prevalence","bare",9,"some",NA,"orange",NA,"tails","60","zorbs"
"521",17,4004,"implied_prevalence","bare",10,"most",NA,"blue",NA,"teeth","25","thups"
"522",17,4058,"implied_prevalence","bare",11,"most",NA,"yellow",NA,"scales","30","dorbs"
"523",17,3899,"implied_prevalence","bare",12,"most",NA,"copper",NA,"fur","55","kweps"
"524",17,4481,"implied_prevalence","bare",13,"some",NA,"red",NA,"scales","60","blins"
"525",17,4065,"implied_prevalence","bare",14,"generic",NA,"purple",NA,"tails","35","taifels"
"526",17,3204,"implied_prevalence","bare",15,"some",NA,"purple",NA,"feathers","33","lorches"
"527",17,2619,"implied_prevalence","bare",16,"generic",NA,"red",NA,"spots","20","sapers"
"528",17,3050,"implied_prevalence","bare",17,"generic",NA,"pink",NA,"ears","25","elleps"
"529",17,5148,"implied_prevalence","bare",18,"generic",NA,"yellow",NA,"fur","25","ollers"
"530",17,45150,"implied_prevalence","bare",19,"most",NA,"pink",NA,"legs","33","feps"
"531",17,3859,"implied_prevalence","bare",20,"generic",NA,"gold",NA,"feathers","55","plovs"
"532",17,3493,"implied_prevalence","bare",21,"generic",NA,"copper",NA,"stripes","60","mooks"
"533",17,3403,"implied_prevalence","bare",22,"most",NA,"red",NA,"feathers","50","noobs"
"534",17,3741,"implied_prevalence","bare",23,"most",NA,"purple",NA,"shells","35","javs"
"535",17,2984,"implied_prevalence","bare",24,"some",NA,"silver",NA,"fur","35","morseths"
"536",17,2509,"implied_prevalence","bare",25,"generic",NA,"blue",NA,"scales","45","reesles"
"537",17,2597,"implied_prevalence","bare",26,"most",NA,"silver",NA,"stripes","25","frams"
"538",17,4896,"implied_prevalence","bare",27,"some",NA,"blue",NA,"ears","30","cheebas"
"539",17,5248,"implied_prevalence","bare",28,"some",NA,"green",NA,"shells","30","moxes"
"540",17,2645,"implied_prevalence","bare",29,"some",NA,"pink",NA,"teeth","33","krivels"
"541",18,14575,"implied_prevalence","bare",0,"generic",NA,"green",NA,"teeth","100","zoovs"
"542",18,7331,"implied_prevalence","bare",1,"most",NA,"red",NA,"scales","95","blins"
"543",18,4753,"implied_prevalence","bare",2,"generic",NA,"orange",NA,"shells","100","luzaks"
"544",18,4024,"implied_prevalence","bare",3,"generic",NA,"red",NA,"spots","100","sapers"
"545",18,5215,"implied_prevalence","bare",4,"some",NA,"pink",NA,"legs","20","feps"
"546",18,3474,"implied_prevalence","bare",5,"generic",NA,"pink",NA,"ears","100","elleps"
"547",18,5356,"implied_prevalence","bare",6,"some",NA,"red",NA,"feathers","30","noobs"
"548",18,10302,"implied_prevalence","bare",7,"some",NA,"yellow",NA,"scales","25","dorbs"
"549",18,17615,"implied_prevalence","bare",8,"most",NA,"copper",NA,"spots","90","glippets"
"550",18,5804,"implied_prevalence","bare",9,"some",NA,"green",NA,"tails","20","trufts"
"551",18,3256,"implied_prevalence","bare",10,"generic",NA,"purple",NA,"tails","100","taifels"
"552",18,28125,"implied_prevalence","bare",11,"most",NA,"gold",NA,"stripes","85","daiths"
"553",18,4747,"implied_prevalence","bare",12,"some",NA,"copper",NA,"fur","20","kweps"
"554",18,3080,"implied_prevalence","bare",13,"generic",NA,"gold",NA,"feathers","100","plovs"
"555",18,4622,"implied_prevalence","bare",14,"most",NA,"pink",NA,"teeth","95","krivels"
"556",18,3434,"implied_prevalence","bare",15,"generic",NA,"silver",NA,"legs","100","ackles"
"557",18,3374,"implied_prevalence","bare",16,"generic",NA,"copper",NA,"stripes","100","mooks"
"558",18,17743,"implied_prevalence","bare",17,"some",NA,"blue",NA,"teeth","25","thups"
"559",18,3010,"implied_prevalence","bare",18,"some",NA,"gold",NA,"spots","25","stups"
"560",18,6306,"implied_prevalence","bare",19,"most",NA,"purple",NA,"feathers","90","lorches"
"561",18,4587,"implied_prevalence","bare",20,"most",NA,"silver",NA,"fur","95","morseths"
"562",18,3483,"implied_prevalence","bare",21,"most",NA,"yellow",NA,"legs","95","ludinos"
"563",18,3342,"implied_prevalence","bare",22,"generic",NA,"yellow",NA,"fur","100","ollers"
"564",18,19083,"implied_prevalence","bare",23,"generic",NA,"blue",NA,"scales","100","reesles"
"565",18,11638,"implied_prevalence","bare",24,"most",NA,"blue",NA,"ears","95","cheebas"
"566",18,5134,"implied_prevalence","bare",25,"some",NA,"purple",NA,"shells","20","javs"
"567",18,3620,"implied_prevalence","bare",26,"most",NA,"green",NA,"shells","95","moxes"
"568",18,4194,"implied_prevalence","bare",27,"some",NA,"orange",NA,"ears","30","kazzes"
"569",18,2603,"implied_prevalence","bare",28,"some",NA,"silver",NA,"stripes","30","frams"
"570",18,2899,"implied_prevalence","bare",29,"most",NA,"orange",NA,"tails","90","zorbs"
"571",19,10922,"implied_prevalence","bare",0,"generic",NA,"pink",NA,"legs","99","feps"
"572",19,6612,"implied_prevalence","bare",1,"some",NA,"silver",NA,"legs","20","ackles"
"573",19,9055,"implied_prevalence","bare",2,"some",NA,"gold",NA,"feathers","20","plovs"
"574",19,4623,"implied_prevalence","bare",3,"generic",NA,"purple",NA,"shells","99","javs"
"575",19,6571,"implied_prevalence","bare",4,"most",NA,"gold",NA,"stripes","90","daiths"
"576",19,4766,"implied_prevalence","bare",5,"most",NA,"pink",NA,"teeth","90","krivels"
"577",19,4102,"implied_prevalence","bare",6,"generic",NA,"green",NA,"tails","99","trufts"
"578",19,6731,"implied_prevalence","bare",7,"most",NA,"copper",NA,"spots","85","glippets"
"579",19,6376,"implied_prevalence","bare",8,"some",NA,"yellow",NA,"fur","30","ollers"
"580",19,3686,"implied_prevalence","bare",9,"generic",NA,"copper",NA,"fur","99","kweps"
"581",19,6351,"implied_prevalence","bare",10,"some",NA,"red",NA,"spots","25","sapers"
"582",19,3605,"implied_prevalence","bare",11,"some",NA,"purple",NA,"tails","25","taifels"
"583",19,5758,"implied_prevalence","bare",12,"generic",NA,"orange",NA,"ears","99","kazzes"
"584",19,10247,"implied_prevalence","bare",13,"some",NA,"blue",NA,"scales","25","reesles"
"585",19,3688,"implied_prevalence","bare",14,"some",NA,"pink",NA,"ears","25","elleps"
"586",19,3809,"implied_prevalence","bare",15,"generic",NA,"gold",NA,"spots","99","stups"
"587",19,4744,"implied_prevalence","bare",16,"most",NA,"purple",NA,"feathers","90","lorches"
"588",19,4721,"implied_prevalence","bare",17,"most",NA,"red",NA,"scales","90","blins"
"589",19,4154,"implied_prevalence","bare",18,"most",NA,"silver",NA,"fur","90","morseths"
"590",19,4179,"implied_prevalence","bare",19,"most",NA,"blue",NA,"ears","90","cheebas"
"591",19,6724,"implied_prevalence","bare",20,"some",NA,"copper",NA,"stripes","25","mooks"
"592",19,7707,"implied_prevalence","bare",21,"most",NA,"yellow",NA,"legs","85","ludinos"
"593",19,5776,"implied_prevalence","bare",22,"most",NA,"orange",NA,"tails","90","zorbs"
"594",19,3541,"implied_prevalence","bare",23,"generic",NA,"yellow",NA,"scales","99","dorbs"
"595",19,6147,"implied_prevalence","bare",24,"some",NA,"orange",NA,"shells","25","luzaks"
"596",19,5199,"implied_prevalence","bare",25,"some",NA,"green",NA,"teeth","20","zoovs"
"597",19,3947,"implied_prevalence","bare",26,"generic",NA,"blue",NA,"teeth","99","thups"
"598",19,6737,"implied_prevalence","bare",27,"generic",NA,"red",NA,"feathers","99","noobs"
"599",19,7880,"implied_prevalence","bare",28,"most",NA,"green",NA,"shells","85","moxes"
"600",19,3664,"implied_prevalence","bare",29,"generic",NA,"silver",NA,"stripes","99","frams"
"601",20,5856,"truth_conditions","bare",NA,"most",0,"copper",30,"stripes","False","mooks"
"602",20,6220,"truth_conditions","bare",NA,"generic",1,"gold",70,"spots","True","stups"
"603",20,4370,"truth_conditions","bare",NA,"generic",2,"purple",70,"shells","True","javs"
"604",20,5002,"truth_conditions","bare",NA,"some",3,"purple",70,"feathers","True","lorches"
"605",20,4367,"truth_conditions","bare",NA,"generic",4,"blue",10,"teeth","False","thups"
"606",20,5639,"truth_conditions","bare",NA,"most",5,"gold",50,"feathers","False","plovs"
"607",20,5568,"truth_conditions","bare",NA,"generic",6,"orange",50,"ears","False","kazzes"
"608",20,3703,"truth_conditions","bare",NA,"some",7,"pink",70,"teeth","True","krivels"
"609",20,4259,"truth_conditions","bare",NA,"most",8,"yellow",10,"fur","False","ollers"
"610",20,3008,"truth_conditions","bare",NA,"generic",9,"green",90,"tails","True","trufts"
"611",20,3453,"truth_conditions","bare",NA,"some",10,"red",30,"scales","True","blins"
"612",20,6275,"truth_conditions","bare",NA,"some",11,"orange",50,"tails","True","zorbs"
"613",20,3396,"truth_conditions","bare",NA,"most",12,"green",70,"teeth","True","zoovs"
"614",20,3924,"truth_conditions","bare",NA,"generic",13,"yellow",50,"scales","False","dorbs"
"615",20,6245,"truth_conditions","bare",NA,"most",14,"red",30,"spots","False","sapers"
"616",20,4868,"truth_conditions","bare",NA,"some",15,"silver",10,"fur","True","morseths"
"617",20,4367,"truth_conditions","bare",NA,"some",16,"green",50,"shells","True","moxes"
"618",20,3840,"truth_conditions","bare",NA,"some",17,"blue",10,"ears","True","cheebas"
"619",20,6610,"truth_conditions","bare",NA,"some",18,"yellow",30,"legs","True","ludinos"
"620",20,4540,"truth_conditions","bare",NA,"most",19,"purple",50,"tails","False","taifels"
"621",20,8523,"truth_conditions","bare",NA,"some",20,"gold",90,"stripes","True","daiths"
"622",20,3238,"truth_conditions","bare",NA,"generic",21,"pink",30,"legs","False","feps"
"623",20,3322,"truth_conditions","bare",NA,"some",22,"copper",90,"spots","True","glippets"
"624",20,3255,"truth_conditions","bare",NA,"most",23,"blue",10,"scales","False","reesles"
"625",20,3118,"truth_conditions","bare",NA,"generic",24,"silver",10,"stripes","False","frams"
"626",20,3018,"truth_conditions","bare",NA,"most",25,"pink",70,"ears","True","elleps"
"627",20,3159,"truth_conditions","bare",NA,"most",26,"silver",90,"legs","True","ackles"
"628",20,3745,"truth_conditions","bare",NA,"generic",27,"red",30,"feathers","False","noobs"
"629",20,3418,"truth_conditions","bare",NA,"generic",28,"copper",90,"fur","True","kweps"
"630",20,3039,"truth_conditions","bare",NA,"most",29,"orange",90,"shells","True","luzaks"
"631",21,10134,"implied_prevalence","bare",0,"some",NA,"gold",NA,"spots","30","stups"
"632",21,7991,"implied_prevalence","bare",1,"most",NA,"blue",NA,"scales","90","reesles"
"633",21,5687,"implied_prevalence","bare",2,"most",NA,"purple",NA,"tails","90","taifels"
"634",21,7800,"implied_prevalence","bare",3,"generic",NA,"red",NA,"scales","100","blins"
"635",21,9360,"implied_prevalence","bare",4,"most",NA,"yellow",NA,"fur","80","ollers"
"636",21,9383,"implied_prevalence","bare",5,"some",NA,"pink",NA,"legs","25","feps"
"637",21,5336,"implied_prevalence","bare",6,"some",NA,"silver",NA,"stripes","25","frams"
"638",21,6049,"implied_prevalence","bare",7,"most",NA,"red",NA,"spots","85","sapers"
"639",21,4076,"implied_prevalence","bare",8,"generic",NA,"blue",NA,"ears","100","cheebas"
"640",21,5648,"implied_prevalence","bare",9,"generic",NA,"orange",NA,"tails","100","zorbs"
"641",21,6254,"implied_prevalence","bare",10,"generic",NA,"yellow",NA,"legs","100","ludinos"
"642",21,6551,"implied_prevalence","bare",11,"some",NA,"purple",NA,"shells","30","javs"
"643",21,5720,"implied_prevalence","bare",12,"some",NA,"orange",NA,"ears","30","kazzes"
"644",21,5528,"implied_prevalence","bare",13,"some",NA,"yellow",NA,"scales","30","dorbs"
"645",21,5472,"implied_prevalence","bare",14,"most",NA,"copper",NA,"stripes","80","mooks"
"646",21,3728,"implied_prevalence","bare",15,"generic",NA,"purple",NA,"feathers","100","lorches"
"647",21,4632,"implied_prevalence","bare",16,"some",NA,"blue",NA,"teeth","35","thups"
"648",21,3977,"implied_prevalence","bare",17,"most",NA,"pink",NA,"ears","85","elleps"
"649",21,4324,"implied_prevalence","bare",18,"most",NA,"silver",NA,"legs","80","ackles"
"650",21,4895,"implied_prevalence","bare",19,"generic",NA,"silver",NA,"fur","100","morseths"
"651",21,4672,"implied_prevalence","bare",20,"some",NA,"green",NA,"tails","30","trufts"
"652",21,3432,"implied_prevalence","bare",21,"some",NA,"copper",NA,"fur","30","kweps"
"653",21,15719,"implied_prevalence","bare",22,"generic",NA,"copper",NA,"spots","100","glippets"
"654",21,8768,"implied_prevalence","bare",23,"some",NA,"red",NA,"feathers","30","noobs"
"655",21,10008,"implied_prevalence","bare",24,"most",NA,"gold",NA,"feathers","80","plovs"
"656",21,4352,"implied_prevalence","bare",25,"generic",NA,"gold",NA,"stripes","100","daiths"
"657",21,5499,"implied_prevalence","bare",26,"most",NA,"green",NA,"teeth","80","zoovs"
"658",21,5155,"implied_prevalence","bare",27,"generic",NA,"pink",NA,"teeth","100","krivels"
"659",21,3487,"implied_prevalence","bare",28,"generic",NA,"green",NA,"shells","100","moxes"
"660",21,4584,"implied_prevalence","bare",29,"most",NA,"orange",NA,"shells","75","luzaks"
"661",22,19657,"implied_prevalence","bare",0,"some",NA,"silver",NA,"legs","33","ackles"
"662",22,8551,"implied_prevalence","bare",1,"most",NA,"green",NA,"tails","75","trufts"
"663",22,8640,"implied_prevalence","bare",2,"most",NA,"silver",NA,"stripes","75","frams"
"664",22,6160,"implied_prevalence","bare",3,"some",NA,"red",NA,"spots","33","sapers"
"665",22,4362,"implied_prevalence","bare",4,"some",NA,"purple",NA,"tails","33","taifels"
"666",22,7670,"implied_prevalence","bare",5,"most",NA,"purple",NA,"shells","75","javs"
"667",22,8801,"implied_prevalence","bare",6,"generic",NA,"pink",NA,"teeth","100","krivels"
"668",22,5072,"implied_prevalence","bare",7,"some",NA,"gold",NA,"feathers","33","plovs"
"669",22,3856,"implied_prevalence","bare",8,"some",NA,"copper",NA,"stripes","33","mooks"
"670",22,6113,"implied_prevalence","bare",9,"generic",NA,"orange",NA,"tails","100","zorbs"
"671",22,4153,"implied_prevalence","bare",10,"some",NA,"orange",NA,"shells","33","luzaks"
"672",22,4024,"implied_prevalence","bare",11,"most",NA,"pink",NA,"legs","75","feps"
"673",22,5895,"implied_prevalence","bare",12,"some",NA,"blue",NA,"scales","33","reesles"
"674",22,2863,"implied_prevalence","bare",13,"some",NA,"pink",NA,"ears","33","elleps"
"675",22,4489,"implied_prevalence","bare",14,"most",NA,"gold",NA,"spots","75","stups"
"676",22,4622,"implied_prevalence","bare",15,"generic",NA,"copper",NA,"spots","100","glippets"
"677",22,3559,"implied_prevalence","bare",16,"generic",NA,"red",NA,"scales","100","blins"
"678",22,7082,"implied_prevalence","bare",17,"generic",NA,"green",NA,"shells","100","moxes"
"679",22,4493,"implied_prevalence","bare",18,"some",NA,"yellow",NA,"fur","33","ollers"
"680",22,7643,"implied_prevalence","bare",19,"most",NA,"red",NA,"feathers","75","noobs"
"681",22,6577,"implied_prevalence","bare",20,"most",NA,"copper",NA,"fur","75","kweps"
"682",22,4134,"implied_prevalence","bare",21,"some",NA,"green",NA,"teeth","33","zoovs"
"683",22,8671,"implied_prevalence","bare",22,"most",NA,"yellow",NA,"scales","75","dorbs"
"684",22,4418,"implied_prevalence","bare",23,"generic",NA,"blue",NA,"ears","100","cheebas"
"685",22,3535,"implied_prevalence","bare",24,"generic",NA,"gold",NA,"stripes","100","daiths"
"686",22,5311,"implied_prevalence","bare",25,"most",NA,"orange",NA,"ears","75","kazzes"
"687",22,4794,"implied_prevalence","bare",26,"generic",NA,"purple",NA,"feathers","100","lorches"
"688",22,3542,"implied_prevalence","bare",27,"generic",NA,"yellow",NA,"legs","100","ludinos"
"689",22,3512,"implied_prevalence","bare",28,"most",NA,"blue",NA,"teeth","75","thups"
"690",22,3210,"implied_prevalence","bare",29,"generic",NA,"silver",NA,"fur","100","morseths"
"691",23,4038,"truth_conditions","bare",NA,"some",0,"blue",30,"ears","True","cheebas"
"692",23,4730,"truth_conditions","bare",NA,"most",1,"red",10,"feathers","False","noobs"
"693",23,3364,"truth_conditions","bare",NA,"some",2,"pink",90,"teeth","True","krivels"
"694",23,2868,"truth_conditions","bare",NA,"generic",3,"pink",90,"ears","True","elleps"
"695",23,2686,"truth_conditions","bare",NA,"most",4,"blue",10,"teeth","False","thups"
"696",23,5222,"truth_conditions","bare",NA,"generic",5,"gold",70,"feathers","True","plovs"
"697",23,6657,"truth_conditions","bare",NA,"some",6,"purple",10,"feathers","True","lorches"
"698",23,3260,"truth_conditions","bare",NA,"generic",7,"purple",90,"tails","True","taifels"
"699",23,2342,"truth_conditions","bare",NA,"most",8,"silver",30,"stripes","False","frams"
"700",23,2215,"truth_conditions","bare",NA,"generic",9,"yellow",10,"fur","False","ollers"
"701",23,1928,"truth_conditions","bare",NA,"most",10,"yellow",90,"scales","True","dorbs"
"702",23,2104,"truth_conditions","bare",NA,"some",11,"red",70,"scales","True","blins"
"703",23,2853,"truth_conditions","bare",NA,"most",12,"orange",30,"ears","False","kazzes"
"704",23,2214,"truth_conditions","bare",NA,"generic",13,"blue",30,"scales","False","reesles"
"705",23,2070,"truth_conditions","bare",NA,"some",14,"green",30,"shells","True","moxes"
"706",23,2101,"truth_conditions","bare",NA,"some",15,"gold",50,"stripes","True","daiths"
"707",23,1882,"truth_conditions","bare",NA,"generic",16,"orange",50,"shells","True","luzaks"
"708",23,1805,"truth_conditions","bare",NA,"most",17,"green",90,"tails","True","trufts"
"709",23,2106,"truth_conditions","bare",NA,"generic",18,"red",70,"spots","True","sapers"
"710",23,2012,"truth_conditions","bare",NA,"most",19,"purple",50,"shells","False","javs"
"711",23,1977,"truth_conditions","bare",NA,"most",20,"gold",70,"spots","True","stups"
"712",23,1646,"truth_conditions","bare",NA,"most",21,"pink",70,"legs","True","feps"
"713",23,1778,"truth_conditions","bare",NA,"some",22,"copper",70,"spots","True","glippets"
"714",23,3357,"truth_conditions","bare",NA,"some",23,"yellow",50,"legs","False","ludinos"
"715",23,1643,"truth_conditions","bare",NA,"generic",24,"copper",10,"stripes","False","mooks"
"716",23,5051,"truth_conditions","bare",NA,"generic",25,"green",30,"teeth","False","zoovs"
"717",23,1806,"truth_conditions","bare",NA,"some",26,"silver",10,"fur","False","morseths"
"718",23,2356,"truth_conditions","bare",NA,"some",27,"orange",90,"tails","True","zorbs"
"719",23,2606,"truth_conditions","bare",NA,"generic",28,"silver",50,"legs","False","ackles"
"720",23,1474,"truth_conditions","bare",NA,"most",29,"copper",50,"fur","True","kweps"
"721",24,6631,"implied_prevalence","bare",0,"most",NA,"red",NA,"scales","75","blins"
"722",24,6516,"implied_prevalence","bare",1,"some",NA,"purple",NA,"shells","20","javs"
"723",24,5077,"implied_prevalence","bare",2,"most",NA,"silver",NA,"fur","75","morseths"
"724",24,4483,"implied_prevalence","bare",3,"generic",NA,"green",NA,"teeth","100","zoovs"
"725",24,4110,"implied_prevalence","bare",4,"most",NA,"gold",NA,"stripes","75","daiths"
"726",24,3377,"implied_prevalence","bare",5,"most",NA,"green",NA,"shells","75","moxes"
"727",24,4524,"implied_prevalence","bare",6,"some",NA,"blue",NA,"teeth","15","thups"
"728",24,4076,"implied_prevalence","bare",7,"some",NA,"pink",NA,"legs","20","feps"
"729",24,3086,"implied_prevalence","bare",8,"generic",NA,"purple",NA,"tails","100","taifels"
"730",24,2764,"implied_prevalence","bare",9,"most",NA,"orange",NA,"tails","75","zorbs"
"731",24,3824,"implied_prevalence","bare",10,"some",NA,"gold",NA,"spots","15","stups"
"732",24,2959,"implied_prevalence","bare",11,"some",NA,"copper",NA,"fur","20","kweps"
"733",24,2897,"implied_prevalence","bare",12,"most",NA,"copper",NA,"spots","75","glippets"
"734",24,2986,"implied_prevalence","bare",13,"generic",NA,"pink",NA,"ears","100","elleps"
"735",24,4858,"implied_prevalence","bare",14,"most",NA,"blue",NA,"ears","75","cheebas"
"736",24,2869,"implied_prevalence","bare",15,"generic",NA,"yellow",NA,"fur","100","ollers"
"737",24,2273,"implied_prevalence","bare",16,"most",NA,"purple",NA,"feathers","75","lorches"
"738",24,3271,"implied_prevalence","bare",17,"some",NA,"red",NA,"feathers","20","noobs"
"739",24,2836,"implied_prevalence","bare",18,"generic",NA,"copper",NA,"stripes","100","mooks"
"740",24,2609,"implied_prevalence","bare",19,"generic",NA,"gold",NA,"feathers","100","plovs"
"741",24,2984,"implied_prevalence","bare",20,"generic",NA,"silver",NA,"legs","100","ackles"
"742",24,2476,"implied_prevalence","bare",21,"some",NA,"orange",NA,"ears","20","kazzes"
"743",24,2659,"implied_prevalence","bare",22,"generic",NA,"blue",NA,"scales","100","reesles"
"744",24,3617,"implied_prevalence","bare",23,"generic",NA,"orange",NA,"shells","100","luzaks"
"745",24,3194,"implied_prevalence","bare",24,"most",NA,"pink",NA,"teeth","75","krivels"
"746",24,2454,"implied_prevalence","bare",25,"generic",NA,"red",NA,"spots","100","sapers"
"747",24,2514,"implied_prevalence","bare",26,"most",NA,"yellow",NA,"legs","75","ludinos"
"748",24,2360,"implied_prevalence","bare",27,"some",NA,"green",NA,"tails","20","trufts"
"749",24,2213,"implied_prevalence","bare",28,"some",NA,"yellow",NA,"scales","20","dorbs"
"750",24,2468,"implied_prevalence","bare",29,"some",NA,"silver",NA,"stripes","20","frams"
"751",25,7957,"implied_prevalence","bare",0,"generic",NA,"pink",NA,"legs","100","feps"
"752",25,6890,"implied_prevalence","bare",1,"some",NA,"blue",NA,"scales","30","reesles"
"753",25,4844,"implied_prevalence","bare",2,"generic",NA,"purple",NA,"shells","100","javs"
"754",25,5141,"implied_prevalence","bare",3,"most",NA,"yellow",NA,"legs","85","ludinos"
"755",25,5236,"implied_prevalence","bare",4,"some",NA,"silver",NA,"legs","25","ackles"
"756",25,5332,"implied_prevalence","bare",5,"most",NA,"silver",NA,"fur","90","morseths"
"757",25,5050,"implied_prevalence","bare",6,"most",NA,"gold",NA,"stripes","80","daiths"
"758",25,3560,"implied_prevalence","bare",7,"most",NA,"orange",NA,"tails","85","zorbs"
"759",25,3806,"implied_prevalence","bare",8,"generic",NA,"red",NA,"feathers","100","noobs"
"760",25,6484,"implied_prevalence","bare",9,"some",NA,"copper",NA,"stripes","30","mooks"
"761",25,5157,"implied_prevalence","bare",10,"some",NA,"yellow",NA,"fur","30","ollers"
"762",25,3478,"implied_prevalence","bare",11,"most",NA,"copper",NA,"spots","85","glippets"
"763",25,3451,"implied_prevalence","bare",12,"some",NA,"purple",NA,"tails","25","taifels"
"764",25,4751,"implied_prevalence","bare",13,"most",NA,"green",NA,"shells","90","moxes"
"765",25,3344,"implied_prevalence","bare",14,"generic",NA,"silver",NA,"stripes","100","frams"
"766",25,6623,"implied_prevalence","bare",15,"most",NA,"purple",NA,"feathers","85","lorches"
"767",25,4235,"implied_prevalence","bare",16,"some",NA,"pink",NA,"ears","25","elleps"
"768",25,3746,"implied_prevalence","bare",17,"generic",NA,"orange",NA,"ears","100","kazzes"
"769",25,5125,"implied_prevalence","bare",18,"generic",NA,"blue",NA,"teeth","100","thups"
"770",25,4052,"implied_prevalence","bare",19,"some",NA,"green",NA,"teeth","25","zoovs"
"771",25,4667,"implied_prevalence","bare",20,"some",NA,"orange",NA,"shells","30","luzaks"
"772",25,3534,"implied_prevalence","bare",21,"generic",NA,"green",NA,"tails","100","trufts"
"773",25,3453,"implied_prevalence","bare",22,"some",NA,"red",NA,"spots","30","sapers"
"774",25,4485,"implied_prevalence","bare",23,"most",NA,"pink",NA,"teeth","85","krivels"
"775",25,4395,"implied_prevalence","bare",24,"generic",NA,"yellow",NA,"scales","100","dorbs"
"776",25,8480,"implied_prevalence","bare",25,"some",NA,"gold",NA,"feathers","25","plovs"
"777",25,4060,"implied_prevalence","bare",26,"generic",NA,"copper",NA,"fur","100","kweps"
"778",25,3979,"implied_prevalence","bare",27,"most",NA,"blue",NA,"ears","85","cheebas"
"779",25,3509,"implied_prevalence","bare",28,"most",NA,"red",NA,"scales","90","blins"
"780",25,3687,"implied_prevalence","bare",29,"generic",NA,"gold",NA,"spots","100","stups"
"781",26,5488,"implied_prevalence","bare",0,"generic",NA,"red",NA,"spots","100","sapers"
"782",26,6754,"implied_prevalence","bare",1,"most",NA,"pink",NA,"teeth","65","krivels"
"783",26,5936,"implied_prevalence","bare",2,"most",NA,"red",NA,"scales","65","blins"
"784",26,4201,"implied_prevalence","bare",3,"some",NA,"green",NA,"tails","30","trufts"
"785",26,5009,"implied_prevalence","bare",4,"most",NA,"orange",NA,"tails","65","zorbs"
"786",26,4270,"implied_prevalence","bare",5,"some",NA,"gold",NA,"spots","30","stups"
"787",26,5437,"implied_prevalence","bare",6,"most",NA,"blue",NA,"ears","90","cheebas"
"788",26,3365,"implied_prevalence","bare",7,"some",NA,"yellow",NA,"scales","25","dorbs"
"789",26,9815,"implied_prevalence","bare",8,"most",NA,"copper",NA,"spots","75","glippets"
"790",26,2533,"implied_prevalence","bare",9,"most",NA,"gold",NA,"stripes","90","daiths"
"791",26,3203,"implied_prevalence","bare",10,"some",NA,"red",NA,"feathers","25","noobs"
"792",26,3043,"implied_prevalence","bare",11,"generic",NA,"purple",NA,"tails","100","taifels"
"793",26,3072,"implied_prevalence","bare",12,"some",NA,"pink",NA,"legs","20","feps"
"794",26,3336,"implied_prevalence","bare",13,"some",NA,"silver",NA,"stripes","20","frams"
"795",26,3484,"implied_prevalence","bare",14,"generic",NA,"copper",NA,"stripes","100","mooks"
"796",26,4369,"implied_prevalence","bare",15,"generic",NA,"blue",NA,"scales","100","reesles"
"797",26,3745,"implied_prevalence","bare",16,"some",NA,"copper",NA,"fur","20","kweps"
"798",26,4200,"implied_prevalence","bare",17,"some",NA,"blue",NA,"teeth","40","thups"
"799",26,2987,"implied_prevalence","bare",18,"most",NA,"green",NA,"shells","90","moxes"
"800",26,2795,"implied_prevalence","bare",19,"generic",NA,"pink",NA,"ears","100","elleps"
"801",26,4132,"implied_prevalence","bare",20,"most",NA,"silver",NA,"fur","80","morseths"
"802",26,2871,"implied_prevalence","bare",21,"some",NA,"purple",NA,"shells","20","javs"
"803",26,3320,"implied_prevalence","bare",22,"generic",NA,"silver",NA,"legs","100","ackles"
"804",26,2655,"implied_prevalence","bare",23,"generic",NA,"gold",NA,"feathers","100","plovs"
"805",26,3313,"implied_prevalence","bare",24,"generic",NA,"green",NA,"teeth","100","zoovs"
"806",26,4972,"implied_prevalence","bare",25,"most",NA,"yellow",NA,"legs","85","ludinos"
"807",26,2965,"implied_prevalence","bare",26,"generic",NA,"yellow",NA,"fur","100","ollers"
"808",26,4200,"implied_prevalence","bare",27,"generic",NA,"orange",NA,"shells","100","luzaks"
"809",26,2888,"implied_prevalence","bare",28,"most",NA,"purple",NA,"feathers","80","lorches"
"810",26,5837,"implied_prevalence","bare",29,"some",NA,"orange",NA,"ears","33","kazzes"
"811",27,6871,"implied_prevalence","bare",0,"generic",NA,"yellow",NA,"scales","15","dorbs"
"812",27,5976,"implied_prevalence","bare",1,"some",NA,"orange",NA,"tails","5","zorbs"
"813",27,9544,"implied_prevalence","bare",2,"most",NA,"silver",NA,"legs","50","ackles"
"814",27,6200,"implied_prevalence","bare",3,"most",NA,"pink",NA,"ears","50","elleps"
"815",27,5055,"implied_prevalence","bare",4,"generic",NA,"pink",NA,"legs","100","feps"
"816",27,4128,"implied_prevalence","bare",5,"generic",NA,"blue",NA,"teeth","100","thups"
"817",27,4728,"implied_prevalence","bare",6,"some",NA,"copper",NA,"spots","15","glippets"
"818",27,3393,"implied_prevalence","bare",7,"some",NA,"red",NA,"scales","15","blins"
"819",27,25055,"implied_prevalence","bare",8,"most",NA,"copper",NA,"stripes","50","mooks"
"820",27,5175,"implied_prevalence","bare",9,"some",NA,"pink",NA,"teeth","15","krivels"
"821",27,16681,"implied_prevalence","bare",10,"some",NA,"yellow",NA,"legs","35","ludinos"
"822",27,2943,"implied_prevalence","bare",11,"most",NA,"purple",NA,"tails","50","taifels"
"823",27,9680,"implied_prevalence","bare",12,"generic",NA,"purple",NA,"shells","100","javs"
"824",27,3071,"implied_prevalence","bare",13,"some",NA,"gold",NA,"stripes","15","daiths"
"825",27,7080,"implied_prevalence","bare",14,"most",NA,"gold",NA,"feathers","75","plovs"
"826",27,21056,"implied_prevalence","bare",15,"some",NA,"blue",NA,"ears","15","cheebas"
"827",27,2576,"implied_prevalence","bare",16,"generic",NA,"silver",NA,"stripes","100","frams"
"828",27,7328,"implied_prevalence","bare",17,"generic",NA,"red",NA,"feathers","100","noobs"
"829",27,3831,"implied_prevalence","bare",18,"most",NA,"green",NA,"teeth","65","zoovs"
"830",27,6457,"implied_prevalence","bare",19,"most",NA,"orange",NA,"shells","65","luzaks"
"831",27,3847,"implied_prevalence","bare",20,"some",NA,"purple",NA,"feathers","45","lorches"
"832",27,8464,"implied_prevalence","bare",21,"some",NA,"silver",NA,"fur","15","morseths"
"833",27,2640,"implied_prevalence","bare",22,"generic",NA,"green",NA,"tails","100","trufts"
"834",27,2688,"implied_prevalence","bare",23,"generic",NA,"orange",NA,"ears","100","kazzes"
"835",27,3337,"implied_prevalence","bare",24,"some",NA,"green",NA,"shells","35","moxes"
"836",27,2734,"implied_prevalence","bare",25,"generic",NA,"gold",NA,"spots","100","stups"
"837",27,2520,"implied_prevalence","bare",26,"most",NA,"yellow",NA,"fur","65","ollers"
"838",27,1944,"implied_prevalence","bare",27,"most",NA,"blue",NA,"scales","65","reesles"
"839",27,1977,"implied_prevalence","bare",28,"generic",NA,"copper",NA,"fur","100","kweps"
"840",27,2918,"implied_prevalence","bare",29,"most",NA,"red",NA,"spots","85","sapers"
"841",28,11563,"implied_prevalence","bare",0,"some",NA,"silver",NA,"legs","25","ackles"
"842",28,3285,"implied_prevalence","bare",1,"some",NA,"red",NA,"spots","25","sapers"
"843",28,2922,"implied_prevalence","bare",2,"some",NA,"yellow",NA,"fur","30","ollers"
"844",28,2911,"implied_prevalence","bare",3,"generic",NA,"red",NA,"scales","100","blins"
"845",28,5688,"implied_prevalence","bare",4,"most",NA,"gold",NA,"spots","75","stups"
"846",28,2395,"implied_prevalence","bare",5,"most",NA,"red",NA,"feathers","75","noobs"
"847",28,4411,"implied_prevalence","bare",6,"generic",NA,"blue",NA,"ears","100","cheebas"
"848",28,2508,"implied_prevalence","bare",7,"most",NA,"copper",NA,"fur","75","kweps"
"849",28,2068,"implied_prevalence","bare",8,"some",NA,"green",NA,"teeth","50","zoovs"
"850",28,2574,"implied_prevalence","bare",9,"generic",NA,"yellow",NA,"legs","100","ludinos"
"851",28,4905,"implied_prevalence","bare",10,"some",NA,"purple",NA,"tails","50","taifels"
"852",28,2936,"implied_prevalence","bare",11,"some",NA,"gold",NA,"feathers","100","plovs"
"853",28,224660,"implied_prevalence","bare",12,"generic",NA,"copper",NA,"spots","100","glippets"
"854",28,3769,"implied_prevalence","bare",13,"most",NA,"silver",NA,"stripes","75","frams"
"855",28,2294,"implied_prevalence","bare",14,"some",NA,"blue",NA,"scales","50","reesles"
"856",28,2244,"implied_prevalence","bare",15,"generic",NA,"pink",NA,"teeth","100","krivels"
"857",28,2291,"implied_prevalence","bare",16,"generic",NA,"gold",NA,"stripes","100","daiths"
"858",28,1945,"implied_prevalence","bare",17,"some",NA,"orange",NA,"shells","50","luzaks"
"859",28,2171,"implied_prevalence","bare",18,"most",NA,"blue",NA,"teeth","75","thups"
"860",28,2224,"implied_prevalence","bare",19,"generic",NA,"silver",NA,"fur","100","morseths"
"861",28,3495,"implied_prevalence","bare",20,"some",NA,"pink",NA,"ears","25","elleps"
"862",28,2520,"implied_prevalence","bare",21,"most",NA,"orange",NA,"ears","75","kazzes"
"863",28,2583,"implied_prevalence","bare",22,"generic",NA,"orange",NA,"tails","100","zorbs"
"864",28,2173,"implied_prevalence","bare",23,"most",NA,"yellow",NA,"scales","75","dorbs"
"865",28,2663,"implied_prevalence","bare",24,"generic",NA,"green",NA,"shells","100","moxes"
"866",28,3333,"implied_prevalence","bare",25,"most",NA,"purple",NA,"shells","75","javs"
"867",28,2416,"implied_prevalence","bare",26,"most",NA,"pink",NA,"legs","75","feps"
"868",28,2371,"implied_prevalence","bare",27,"some",NA,"copper",NA,"stripes","50","mooks"
"869",28,1840,"implied_prevalence","bare",28,"generic",NA,"purple",NA,"feathers","100","lorches"
"870",28,2697,"implied_prevalence","bare",29,"most",NA,"green",NA,"tails","75","trufts"
"871",29,26716,"truth_conditions","bare",NA,"most",0,"purple",90,"shells","True","javs"
"872",29,17610,"truth_conditions","bare",NA,"some",1,"copper",70,"spots","True","glippets"
"873",29,25296,"truth_conditions","bare",NA,"most",2,"orange",70,"ears","True","kazzes"
"874",29,19883,"truth_conditions","bare",NA,"some",3,"gold",90,"stripes","True","daiths"
"875",29,11583,"truth_conditions","bare",NA,"some",4,"pink",50,"teeth","True","krivels"
"876",29,12310,"truth_conditions","bare",NA,"some",5,"purple",30,"feathers","True","lorches"
"877",29,11976,"truth_conditions","bare",NA,"some",6,"red",30,"scales","True","blins"
"878",29,17989,"truth_conditions","bare",NA,"most",7,"pink",30,"legs","False","feps"
"879",29,13097,"truth_conditions","bare",NA,"some",8,"silver",10,"fur","True","morseths"
"880",29,19884,"truth_conditions","bare",NA,"generic",9,"green",90,"teeth","False","zoovs"
"881",29,11982,"truth_conditions","bare",NA,"some",10,"orange",50,"tails","True","zorbs"
"882",29,16037,"truth_conditions","bare",NA,"most",11,"copper",70,"fur","True","kweps"
"883",29,26549,"truth_conditions","bare",NA,"generic",12,"gold",70,"feathers","True","plovs"
"884",29,14533,"truth_conditions","bare",NA,"generic",13,"silver",30,"legs","True","ackles"
"885",29,8850,"truth_conditions","bare",NA,"generic",14,"copper",10,"stripes","True","mooks"
"886",29,7560,"truth_conditions","bare",NA,"most",15,"green",10,"tails","False","trufts"
"887",29,10952,"truth_conditions","bare",NA,"most",16,"gold",30,"spots","False","stups"
"888",29,10060,"truth_conditions","bare",NA,"most",17,"yellow",10,"scales","False","dorbs"
"889",29,7900,"truth_conditions","bare",NA,"generic",18,"red",50,"spots","True","sapers"
"890",29,10510,"truth_conditions","bare",NA,"some",19,"green",90,"shells","True","moxes"
"891",29,10880,"truth_conditions","bare",NA,"generic",20,"pink",10,"ears","True","elleps"
"892",29,13666,"truth_conditions","bare",NA,"some",21,"blue",10,"ears","True","cheebas"
"893",29,13440,"truth_conditions","bare",NA,"generic",22,"orange",70,"shells","True","luzaks"
"894",29,9316,"truth_conditions","bare",NA,"most",23,"blue",90,"teeth","True","thups"
"895",29,11292,"truth_conditions","bare",NA,"generic",24,"blue",50,"scales","True","reesles"
"896",29,9711,"truth_conditions","bare",NA,"generic",25,"purple",90,"tails","True","taifels"
"897",29,17923,"truth_conditions","bare",NA,"most",26,"red",50,"feathers","False","noobs"
"898",29,11120,"truth_conditions","bare",NA,"some",27,"yellow",70,"legs","True","ludinos"
"899",29,11676,"truth_conditions","bare",NA,"most",28,"silver",50,"stripes","False","frams"
"900",29,6225,"truth_conditions","bare",NA,"generic",29,"yellow",30,"fur","True","ollers"
"901",30,8887,"implied_prevalence","bare",0,"most",NA,"copper",NA,"spots","80","glippets"
"902",30,8683,"implied_prevalence","bare",1,"most",NA,"gold",NA,"stripes","85","daiths"
"903",30,7427,"implied_prevalence","bare",2,"generic",NA,"orange",NA,"ears","98","kazzes"
"904",30,3983,"implied_prevalence","bare",3,"generic",NA,"red",NA,"feathers","80","noobs"
"905",30,5164,"implied_prevalence","bare",4,"most",NA,"orange",NA,"tails","99","zorbs"
"906",30,5290,"implied_prevalence","bare",5,"generic",NA,"silver",NA,"stripes","85","frams"
"907",30,4162,"implied_prevalence","bare",6,"some",NA,"pink",NA,"ears","90","elleps"
"908",30,3930,"implied_prevalence","bare",7,"most",NA,"green",NA,"shells","70","moxes"
"909",30,5164,"implied_prevalence","bare",8,"some",NA,"gold",NA,"feathers","80","plovs"
"910",30,4196,"implied_prevalence","bare",9,"some",NA,"green",NA,"teeth","99","zoovs"
"911",30,3704,"implied_prevalence","bare",10,"some",NA,"purple",NA,"tails","80","taifels"
"912",30,3991,"implied_prevalence","bare",11,"generic",NA,"purple",NA,"shells","70","javs"
"913",30,5874,"implied_prevalence","bare",12,"generic",NA,"yellow",NA,"scales","80","dorbs"
"914",30,2961,"implied_prevalence","bare",13,"most",NA,"red",NA,"scales","80","blins"
"915",30,4046,"implied_prevalence","bare",14,"some",NA,"blue",NA,"scales","70","reesles"
"916",30,3524,"implied_prevalence","bare",15,"generic",NA,"pink",NA,"legs","70","feps"
"917",30,3500,"implied_prevalence","bare",16,"most",NA,"pink",NA,"teeth","80","krivels"
"918",30,7020,"implied_prevalence","bare",17,"generic",NA,"copper",NA,"fur","60","kweps"
"919",30,4786,"implied_prevalence","bare",18,"some",NA,"copper",NA,"stripes","50","mooks"
"920",30,3672,"implied_prevalence","bare",19,"generic",NA,"blue",NA,"teeth","40","thups"
"921",30,5242,"implied_prevalence","bare",20,"most",NA,"silver",NA,"fur","90","morseths"
"922",30,2766,"implied_prevalence","bare",21,"generic",NA,"green",NA,"tails","60","trufts"
"923",30,7016,"implied_prevalence","bare",22,"some",NA,"orange",NA,"shells","30","luzaks"
"924",30,2782,"implied_prevalence","bare",23,"some",NA,"red",NA,"spots","30","sapers"
"925",30,2804,"implied_prevalence","bare",24,"some",NA,"yellow",NA,"fur","20","ollers"
"926",30,3483,"implied_prevalence","bare",25,"most",NA,"blue",NA,"ears","89","cheebas"
"927",30,3586,"implied_prevalence","bare",26,"generic",NA,"gold",NA,"spots","55","stups"
"928",30,5102,"implied_prevalence","bare",27,"most",NA,"purple",NA,"feathers","90","lorches"
"929",30,4258,"implied_prevalence","bare",28,"most",NA,"yellow",NA,"legs","90","ludinos"
"930",30,3835,"implied_prevalence","bare",29,"some",NA,"silver",NA,"legs","25","ackles"
"931",31,14376,"truth_conditions","bare",NA,"generic",0,"purple",90,"tails","False","taifels"
"932",31,9662,"truth_conditions","bare",NA,"generic",1,"silver",30,"legs","False","ackles"
"933",31,4450,"truth_conditions","bare",NA,"generic",2,"copper",10,"stripes","False","mooks"
"934",31,3943,"truth_conditions","bare",NA,"most",3,"green",30,"shells","False","moxes"
"935",31,3605,"truth_conditions","bare",NA,"most",4,"orange",30,"tails","False","zorbs"
"936",31,2985,"truth_conditions","bare",NA,"some",5,"purple",10,"shells","False","javs"
"937",31,2556,"truth_conditions","bare",NA,"most",6,"red",10,"scales","False","blins"
"938",31,2686,"truth_conditions","bare",NA,"generic",7,"red",50,"spots","False","sapers"
"939",31,2499,"truth_conditions","bare",NA,"some",8,"blue",90,"teeth","False","thups"
"940",31,3197,"truth_conditions","bare",NA,"most",9,"copper",90,"spots","False","glippets"
"941",31,5059,"truth_conditions","bare",NA,"most",10,"gold",70,"stripes","False","daiths"
"942",31,2099,"truth_conditions","bare",NA,"most",11,"purple",10,"feathers","False","lorches"
"943",31,1701,"truth_conditions","bare",NA,"some",12,"copper",70,"fur","False","kweps"
"944",31,3500,"truth_conditions","bare",NA,"some",13,"gold",50,"spots","False","stups"
"945",31,1942,"truth_conditions","bare",NA,"some",14,"orange",50,"ears","False","kazzes"
"946",31,1792,"truth_conditions","bare",NA,"most",15,"pink",50,"teeth","False","krivels"
"947",31,1525,"truth_conditions","bare",NA,"some",16,"red",30,"feathers","False","noobs"
"948",31,1920,"truth_conditions","bare",NA,"some",17,"silver",70,"stripes","False","frams"
"949",31,1555,"truth_conditions","bare",NA,"some",18,"green",90,"tails","False","trufts"
"950",31,1364,"truth_conditions","bare",NA,"most",19,"yellow",50,"legs","False","ludinos"
"951",31,1962,"truth_conditions","bare",NA,"generic",20,"pink",50,"ears","False","elleps"
"952",31,4188,"truth_conditions","bare",NA,"most",21,"silver",90,"fur","True","morseths"
"953",31,2859,"truth_conditions","bare",NA,"generic",22,"yellow",30,"fur","False","ollers"
"954",31,3179,"truth_conditions","bare",NA,"most",23,"blue",70,"ears","True","cheebas"
"955",31,2167,"truth_conditions","bare",NA,"some",24,"yellow",30,"scales","True","dorbs"
"956",31,2842,"truth_conditions","bare",NA,"generic",25,"blue",10,"scales","False","reesles"
"957",31,2081,"truth_conditions","bare",NA,"generic",26,"orange",70,"shells","False","luzaks"
"958",31,1758,"truth_conditions","bare",NA,"generic",27,"green",70,"teeth","False","zoovs"
"959",31,1810,"truth_conditions","bare",NA,"some",28,"pink",10,"legs","True","feps"
"960",31,2044,"truth_conditions","bare",NA,"generic",29,"gold",90,"feathers","False","plovs"
"961",32,9130,"truth_conditions","bare",NA,"most",0,"copper",70,"stripes","True","mooks"
"962",32,9379,"truth_conditions","bare",NA,"generic",1,"purple",50,"feathers","True","lorches"
"963",32,7765,"truth_conditions","bare",NA,"some",2,"yellow",50,"scales","True","dorbs"
"964",32,7834,"truth_conditions","bare",NA,"some",3,"purple",70,"shells","True","javs"
"965",32,8308,"truth_conditions","bare",NA,"most",4,"red",70,"spots","True","sapers"
"966",32,13026,"truth_conditions","bare",NA,"generic",5,"copper",30,"spots","True","glippets"
"967",32,13425,"truth_conditions","bare",NA,"most",6,"yellow",90,"fur","True","ollers"
"968",32,4646,"truth_conditions","bare",NA,"some",7,"green",10,"tails","True","trufts"
"969",32,7251,"truth_conditions","bare",NA,"generic",8,"orange",70,"tails","True","zorbs"
"970",32,6115,"truth_conditions","bare",NA,"some",9,"silver",30,"stripes","True","frams"
"971",32,4471,"truth_conditions","bare",NA,"some",10,"orange",70,"ears","True","kazzes"
"972",32,5469,"truth_conditions","bare",NA,"generic",11,"pink",10,"teeth","True","krivels"
"973",32,5669,"truth_conditions","bare",NA,"some",12,"red",90,"feathers","True","noobs"
"974",32,4843,"truth_conditions","bare",NA,"generic",13,"silver",30,"fur","True","morseths"
"975",32,5584,"truth_conditions","bare",NA,"most",14,"pink",30,"ears","False","elleps"
"976",32,4430,"truth_conditions","bare",NA,"most",15,"purple",90,"tails","True","taifels"
"977",32,5001,"truth_conditions","bare",NA,"most",16,"silver",30,"legs","False","ackles"
"978",32,3495,"truth_conditions","bare",NA,"generic",17,"red",90,"scales","True","blins"
"979",32,6357,"truth_conditions","bare",NA,"some",18,"gold",30,"spots","True","stups"
"980",32,3485,"truth_conditions","bare",NA,"some",19,"blue",10,"teeth","True","thups"
"981",32,5140,"truth_conditions","bare",NA,"some",20,"pink",90,"legs","True","feps"
"982",32,4710,"truth_conditions","bare",NA,"some",21,"copper",50,"fur","True","kweps"
"983",32,4403,"truth_conditions","bare",NA,"most",22,"gold",10,"feathers","False","plovs"
"984",32,3513,"truth_conditions","bare",NA,"most",23,"blue",10,"scales","False","reesles"
"985",32,6807,"truth_conditions","bare",NA,"most",24,"orange",50,"shells","False","luzaks"
"986",32,5090,"truth_conditions","bare",NA,"generic",25,"yellow",70,"legs","True","ludinos"
"987",32,3736,"truth_conditions","bare",NA,"most",26,"green",50,"teeth","False","zoovs"
"988",32,3778,"truth_conditions","bare",NA,"generic",27,"green",10,"shells","True","moxes"
"989",32,3718,"truth_conditions","bare",NA,"generic",28,"gold",50,"stripes","True","daiths"
"990",32,3864,"truth_conditions","bare",NA,"generic",29,"blue",90,"ears","True","cheebas"
"991",33,11079,"implied_prevalence","bare",0,"generic",NA,"copper",NA,"spots","100","glippets"
"992",33,5432,"implied_prevalence","bare",1,"some",NA,"green",NA,"teeth","40","zoovs"
"993",33,4504,"implied_prevalence","bare",2,"some",NA,"silver",NA,"legs","40","ackles"
"994",33,6015,"implied_prevalence","bare",3,"most",NA,"green",NA,"tails","80","trufts"
"995",33,5567,"implied_prevalence","bare",4,"generic",NA,"silver",NA,"fur","100","morseths"
"996",33,3544,"implied_prevalence","bare",5,"generic",NA,"red",NA,"scales","100","blins"
"997",33,3248,"implied_prevalence","bare",6,"most",NA,"yellow",NA,"scales","80","dorbs"
"998",33,3624,"implied_prevalence","bare",7,"generic",NA,"yellow",NA,"legs","100","ludinos"
"999",33,3784,"implied_prevalence","bare",8,"generic",NA,"gold",NA,"stripes","100","daiths"
"1000",33,4391,"implied_prevalence","bare",9,"some",NA,"blue",NA,"scales","50","reesles"
"1001",33,2687,"implied_prevalence","bare",10,"some",NA,"orange",NA,"shells","40","luzaks"
"1002",33,4352,"implied_prevalence","bare",11,"most",NA,"orange",NA,"ears","80","kazzes"
"1003",33,4343,"implied_prevalence","bare",12,"generic",NA,"pink",NA,"teeth","100","krivels"
"1004",33,2792,"implied_prevalence","bare",13,"some",NA,"red",NA,"spots","40","sapers"
"1005",33,5382,"implied_prevalence","bare",14,"generic",NA,"blue",NA,"ears","100","cheebas"
"1006",33,11375,"implied_prevalence","bare",15,"some",NA,"gold",NA,"feathers","40","plovs"
"1007",33,4439,"implied_prevalence","bare",16,"most",NA,"silver",NA,"stripes","75","frams"
"1008",33,4071,"implied_prevalence","bare",17,"most",NA,"purple",NA,"shells","80","javs"
"1009",33,3960,"implied_prevalence","bare",18,"generic",NA,"green",NA,"shells","100","moxes"
"1010",33,4905,"implied_prevalence","bare",19,"some",NA,"purple",NA,"tails","35","taifels"
"1011",33,4063,"implied_prevalence","bare",20,"some",NA,"pink",NA,"ears","40","elleps"
"1012",33,5400,"implied_prevalence","bare",21,"some",NA,"yellow",NA,"fur","40","ollers"
"1013",33,3047,"implied_prevalence","bare",22,"most",NA,"gold",NA,"spots","80","stups"
"1014",33,3423,"implied_prevalence","bare",23,"most",NA,"blue",NA,"teeth","80","thups"
"1015",33,4911,"implied_prevalence","bare",24,"most",NA,"copper",NA,"fur","86","kweps"
"1016",33,3391,"implied_prevalence","bare",25,"generic",NA,"purple",NA,"feathers","100","lorches"
"1017",33,4159,"implied_prevalence","bare",26,"most",NA,"pink",NA,"legs","90","feps"
"1018",33,3959,"implied_prevalence","bare",27,"most",NA,"red",NA,"feathers","80","noobs"
"1019",33,4999,"implied_prevalence","bare",28,"some",NA,"copper",NA,"stripes","40","mooks"
"1020",33,5727,"implied_prevalence","bare",29,"generic",NA,"orange",NA,"tails","100","zorbs"
"1021",34,10806,"implied_prevalence","bare",0,"some",NA,"green",NA,"shells","20","moxes"
"1022",34,5792,"implied_prevalence","bare",1,"most",NA,"red",NA,"spots","66","sapers"
"1023",34,5591,"implied_prevalence","bare",2,"some",NA,"yellow",NA,"legs","20","ludinos"
"1024",34,5576,"implied_prevalence","bare",3,"some",NA,"purple",NA,"feathers","20","lorches"
"1025",34,4816,"implied_prevalence","bare",4,"most",NA,"green",NA,"teeth","66","zoovs"
"1026",34,3384,"implied_prevalence","bare",5,"most",NA,"orange",NA,"shells","66","luzaks"
"1027",34,3767,"implied_prevalence","bare",6,"most",NA,"copper",NA,"stripes","66","mooks"
"1028",34,8696,"implied_prevalence","bare",7,"generic",NA,"orange",NA,"ears","100","kazzes"
"1029",34,4216,"implied_prevalence","bare",8,"most",NA,"pink",NA,"ears","66","elleps"
"1030",34,4527,"implied_prevalence","bare",9,"generic",NA,"purple",NA,"shells","100","javs"
"1031",34,4703,"implied_prevalence","bare",10,"generic",NA,"blue",NA,"teeth","100","thups"
"1032",34,4080,"implied_prevalence","bare",11,"generic",NA,"silver",NA,"stripes","100","frams"
"1033",34,5296,"implied_prevalence","bare",12,"some",NA,"silver",NA,"fur","20","morseths"
"1034",34,3880,"implied_prevalence","bare",13,"most",NA,"yellow",NA,"fur","66","ollers"
"1035",34,4199,"implied_prevalence","bare",14,"some",NA,"red",NA,"scales","20","blins"
"1036",34,4616,"implied_prevalence","bare",15,"generic",NA,"pink",NA,"legs","100","feps"
"1037",34,5272,"implied_prevalence","bare",16,"generic",NA,"green",NA,"tails","100","trufts"
"1038",34,4313,"implied_prevalence","bare",17,"some",NA,"pink",NA,"teeth","20","krivels"
"1039",34,4270,"implied_prevalence","bare",18,"some",NA,"orange",NA,"tails","20","zorbs"
"1040",34,3531,"implied_prevalence","bare",19,"most",NA,"silver",NA,"legs","66","ackles"
"1041",34,5072,"implied_prevalence","bare",20,"generic",NA,"yellow",NA,"scales","100","dorbs"
"1042",34,4277,"implied_prevalence","bare",21,"most",NA,"purple",NA,"tails","66","taifels"
"1043",34,4004,"implied_prevalence","bare",22,"most",NA,"blue",NA,"scales","66","reesles"
"1044",34,4855,"implied_prevalence","bare",23,"some",NA,"gold",NA,"stripes","20","daiths"
"1045",34,3925,"implied_prevalence","bare",24,"most",NA,"gold",NA,"feathers","66","plovs"
"1046",34,3739,"implied_prevalence","bare",25,"generic",NA,"red",NA,"feathers","100","noobs"
"1047",34,5689,"implied_prevalence","bare",26,"generic",NA,"gold",NA,"spots","100","stups"
"1048",34,4060,"implied_prevalence","bare",27,"some",NA,"blue",NA,"ears","20","cheebas"
"1049",34,3973,"implied_prevalence","bare",28,"generic",NA,"copper",NA,"fur","100","kweps"
"1050",34,5545,"implied_prevalence","bare",29,"some",NA,"copper",NA,"spots","20","glippets"
"1051",35,5283,"truth_conditions","bare",NA,"generic",0,"copper",10,"fur","True","kweps"
"1052",35,2914,"truth_conditions","bare",NA,"generic",1,"orange",70,"ears","True","kazzes"
"1053",35,2998,"truth_conditions","bare",NA,"generic",2,"blue",90,"teeth","True","thups"
"1054",35,2487,"truth_conditions","bare",NA,"most",3,"blue",50,"scales","True","reesles"
"1055",35,2847,"truth_conditions","bare",NA,"generic",4,"pink",50,"legs","True","feps"
"1056",35,2016,"truth_conditions","bare",NA,"generic",5,"purple",90,"shells","True","javs"
"1057",35,4144,"truth_conditions","bare",NA,"most",6,"gold",30,"feathers","False","plovs"
"1058",35,2231,"truth_conditions","bare",NA,"some",7,"yellow",10,"legs","True","ludinos"
"1059",35,1951,"truth_conditions","bare",NA,"some",8,"purple",70,"feathers","True","lorches"
"1060",35,2431,"truth_conditions","bare",NA,"some",9,"silver",90,"fur","True","morseths"
"1061",35,1784,"truth_conditions","bare",NA,"most",10,"copper",90,"stripes","True","mooks"
"1062",35,1630,"truth_conditions","bare",NA,"most",11,"red",70,"spots","True","sapers"
"1063",35,2792,"truth_conditions","bare",NA,"most",12,"pink",10,"ears","False","elleps"
"1064",35,1456,"truth_conditions","bare",NA,"most",13,"yellow",90,"fur","True","ollers"
"1065",35,1824,"truth_conditions","bare",NA,"generic",14,"green",70,"tails","True","trufts"
"1066",35,984,"truth_conditions","bare",NA,"generic",15,"silver",30,"stripes","True","frams"
"1067",35,847,"truth_conditions","bare",NA,"generic",16,"red",30,"feathers","True","noobs"
"1068",35,1856,"truth_conditions","bare",NA,"generic",17,"yellow",50,"scales","True","dorbs"
"1069",35,1576,"truth_conditions","bare",NA,"some",18,"pink",50,"teeth","True","krivels"
"1070",35,2519,"truth_conditions","bare",NA,"most",19,"purple",10,"tails","False","taifels"
"1071",35,2632,"truth_conditions","bare",NA,"generic",20,"gold",10,"spots","True","stups"
"1072",35,1671,"truth_conditions","bare",NA,"some",21,"red",90,"scales","True","blins"
"1073",35,1040,"truth_conditions","bare",NA,"most",22,"silver",70,"legs","True","ackles"
"1074",35,688,"truth_conditions","bare",NA,"some",23,"orange",50,"tails","True","zorbs"
"1075",35,760,"truth_conditions","bare",NA,"some",24,"gold",30,"stripes","True","daiths"
"1076",35,651,"truth_conditions","bare",NA,"some",25,"green",30,"shells","True","moxes"
"1077",35,693,"truth_conditions","bare",NA,"some",26,"blue",10,"ears","True","cheebas"
"1078",35,782,"truth_conditions","bare",NA,"most",27,"green",50,"teeth","True","zoovs"
"1079",35,783,"truth_conditions","bare",NA,"some",28,"copper",70,"spots","True","glippets"
"1080",35,672,"truth_conditions","bare",NA,"most",29,"orange",30,"shells","True","luzaks"
"1081",36,8293,"implied_prevalence","bare",0,"generic",NA,"green",NA,"tails","90","trufts"
"1082",36,3896,"implied_prevalence","bare",1,"some",NA,"silver",NA,"legs","30","ackles"
"1083",36,3239,"implied_prevalence","bare",2,"some",NA,"copper",NA,"stripes","40","mooks"
"1084",36,4304,"implied_prevalence","bare",3,"most",NA,"green",NA,"shells","85","moxes"
"1085",36,2519,"implied_prevalence","bare",4,"most",NA,"silver",NA,"fur","75","morseths"
"1086",36,2880,"implied_prevalence","bare",5,"generic",NA,"pink",NA,"legs","90","feps"
"1087",36,3478,"implied_prevalence","bare",6,"generic",NA,"blue",NA,"teeth","90","thups"
"1088",36,2951,"implied_prevalence","bare",7,"generic",NA,"yellow",NA,"scales","90","dorbs"
"1089",36,2536,"implied_prevalence","bare",8,"generic",NA,"copper",NA,"fur","90","kweps"
"1090",36,3447,"implied_prevalence","bare",9,"most",NA,"yellow",NA,"legs","75","ludinos"
"1091",36,3623,"implied_prevalence","bare",10,"some",NA,"red",NA,"spots","40","sapers"
"1092",36,2655,"implied_prevalence","bare",11,"generic",NA,"silver",NA,"stripes","90","frams"
"1093",36,3887,"implied_prevalence","bare",12,"some",NA,"purple",NA,"tails","80","taifels"
"1094",36,5064,"implied_prevalence","bare",13,"most",NA,"copper",NA,"spots","90","glippets"
"1095",36,4120,"implied_prevalence","bare",14,"some",NA,"orange",NA,"shells","30","luzaks"
"1096",36,3200,"implied_prevalence","bare",15,"generic",NA,"purple",NA,"shells","95","javs"
"1097",36,3232,"implied_prevalence","bare",16,"some",NA,"gold",NA,"feathers","30","plovs"
"1098",36,4055,"implied_prevalence","bare",17,"generic",NA,"gold",NA,"spots","90","stups"
"1099",36,4895,"implied_prevalence","bare",18,"some",NA,"blue",NA,"scales","30","reesles"
"1100",36,2599,"implied_prevalence","bare",19,"most",NA,"purple",NA,"feathers","90","lorches"
"1101",36,3448,"implied_prevalence","bare",20,"generic",NA,"red",NA,"feathers","90","noobs"
"1102",36,7288,"implied_prevalence","bare",21,"most",NA,"orange",NA,"tails","75","zorbs"
"1103",36,4408,"implied_prevalence","bare",22,"some",NA,"green",NA,"teeth","20","zoovs"
"1104",36,3703,"implied_prevalence","bare",23,"some",NA,"yellow",NA,"fur","40","ollers"
"1105",36,3831,"implied_prevalence","bare",24,"most",NA,"gold",NA,"stripes","80","daiths"
"1106",36,6432,"implied_prevalence","bare",25,"generic",NA,"orange",NA,"ears","90","kazzes"
"1107",36,4263,"implied_prevalence","bare",26,"most",NA,"blue",NA,"ears","70","cheebas"
"1108",36,5416,"implied_prevalence","bare",27,"some",NA,"pink",NA,"ears","45","elleps"
"1109",36,5848,"implied_prevalence","bare",28,"most",NA,"red",NA,"scales","90","blins"
"1110",36,6136,"implied_prevalence","bare",29,"most",NA,"pink",NA,"teeth","80","krivels"
"1111",37,6524,"implied_prevalence","bare",0,"generic",NA,"green",NA,"shells","100","moxes"
"1112",37,6518,"implied_prevalence","bare",1,"most",NA,"blue",NA,"teeth","80","thups"
"1113",37,5426,"implied_prevalence","bare",2,"generic",NA,"blue",NA,"ears","100","cheebas"
"1114",37,6412,"implied_prevalence","bare",3,"generic",NA,"pink",NA,"teeth","100","krivels"
"1115",37,5346,"implied_prevalence","bare",4,"some",NA,"blue",NA,"scales","40","reesles"
"1116",37,6200,"implied_prevalence","bare",5,"generic",NA,"gold",NA,"stripes","100","daiths"
"1117",37,8214,"implied_prevalence","bare",6,"some",NA,"purple",NA,"tails","30","taifels"
"1118",37,10985,"implied_prevalence","bare",7,"most",NA,"purple",NA,"shells","80","javs"
"1119",37,4519,"implied_prevalence","bare",8,"most",NA,"copper",NA,"fur","80","kweps"
"1120",37,3624,"implied_prevalence","bare",9,"most",NA,"red",NA,"feathers","80","noobs"
"1121",37,6785,"implied_prevalence","bare",10,"some",NA,"green",NA,"teeth","35","zoovs"
"1122",37,3968,"implied_prevalence","bare",11,"generic",NA,"orange",NA,"tails","100","zorbs"
"1123",37,4318,"implied_prevalence","bare",12,"some",NA,"copper",NA,"stripes","35","mooks"
