workerid	rt	trial_type	stim_type	stim_part	stim_determiner	trialNum	stim_color	stim_prevalence	response	stim_category
0	9959	truth_conditions	bare	stripes	generic	0	gold	70	True	daiths
0	7989	truth_conditions	bare	tails	generic	1	purple	70	True	taifels
0	7484	truth_conditions	distinct	shells	generic	2	green	90	True	moxes
0	5284	truth_conditions	distinct	legs	generic	3	yellow	90	True	ludinos
0	9171	truth_conditions	distinct	teeth	generic	4	blue	30	False	thups
0	4915	truth_conditions	distinct	tails	generic	5	green	10	False	trufts
0	12376	truth_conditions	bare	shells	generic	6	orange	50	False	luzaks
0	2744	truth_conditions	distinct	feathers	generic	7	gold	90	True	plovs
0	3928	truth_conditions	distinct	spots	generic	8	gold	50	False	stups
0	3596	truth_conditions	danger	legs	generic	9	silver	10	False	ackles
0	2787	truth_conditions	danger	tails	generic	10	orange	30	False	zorbs
0	3445	truth_conditions	danger	teeth	generic	11	green	50	False	zoovs
0	2297	truth_conditions	danger	spots	generic	12	red	30	False	sapers
0	2479	truth_conditions	bare	teeth	generic	13	pink	50	False	krivels
0	6928	truth_conditions	distinct	stripes	generic	14	silver	50	False	frams
0	2208	truth_conditions	distinct	ears	generic	15	pink	30	False	elleps
0	4044	truth_conditions	danger	fur	generic	16	silver	10	False	morseths
0	2452	truth_conditions	distinct	scales	generic	17	blue	70	True	reesles
0	3012	truth_conditions	bare	legs	generic	18	pink	70	True	feps
0	2668	truth_conditions	danger	stripes	generic	19	copper	10	False	mooks
0	1840	truth_conditions	bare	fur	generic	20	copper	30	False	kweps
0	2120	truth_conditions	bare	spots	generic	21	copper	50	False	glippets
0	1799	truth_conditions	bare	scales	generic	22	red	70	True	blins
0	2467	truth_conditions	bare	feathers	generic	23	purple	30	False	lorches
0	1655	truth_conditions	bare	ears	generic	24	blue	10	False	cheebas
0	4380	truth_conditions	danger	shells	generic	25	purple	10	False	javs
0	2655	truth_conditions	distinct	fur	generic	26	yellow	90	True	ollers
0	1651	truth_conditions	danger	ears	generic	27	orange	70	True	kazzes
0	1837	truth_conditions	danger	scales	generic	28	yellow	90	True	dorbs
0	1606	truth_conditions	danger	feathers	generic	29	red	90	True	noobs
1	6173	truth_conditions	bare	legs	generic	0	silver	30	False	ackles
1	7985	truth_conditions	bare	feathers	generic	1	purple	90	False	lorches
1	14921	truth_conditions	distinct	ears	generic	2	orange	90	False	kazzes
1	4677	truth_conditions	bare	tails	generic	3	orange	50	False	zorbs
1	9864	truth_conditions	danger	teeth	generic	4	blue	70	False	thups
1	8401	truth_conditions	distinct	legs	generic	5	yellow	70	False	ludinos
1	5914	truth_conditions	distinct	shells	generic	6	green	70	False	moxes
1	5145	truth_conditions	danger	shells	generic	7	purple	50	False	javs
1	4130	truth_conditions	bare	scales	generic	8	blue	50	False	reesles
1	6133	truth_conditions	danger	ears	generic	9	blue	10	False	cheebas
1	5114	truth_conditions	distinct	scales	generic	10	yellow	70	False	dorbs
1	3695	truth_conditions	bare	stripes	generic	11	gold	30	False	daiths
1	7255	truth_conditions	danger	spots	generic	12	red	10	False	sapers
1	4159	truth_conditions	distinct	fur	generic	13	copper	10	False	kweps
1	2854	truth_conditions	bare	shells	generic	14	orange	30	False	luzaks
1	3336	truth_conditions	danger	feathers	generic	15	red	50	False	noobs
1	3839	truth_conditions	distinct	teeth	generic	16	green	90	False	zoovs
1	3067	truth_conditions	bare	spots	generic	17	gold	30	False	stups
1	3173	truth_conditions	danger	fur	generic	18	silver	30	False	morseths
1	4542	truth_conditions	danger	tails	generic	19	green	10	False	trufts
1	3140	truth_conditions	distinct	feathers	generic	20	gold	70	False	plovs
1	3183	truth_conditions	distinct	spots	generic	21	copper	10	False	glippets
1	3436	truth_conditions	danger	legs	generic	22	pink	30	False	feps
1	3432	truth_conditions	distinct	tails	generic	23	purple	10	False	taifels
1	2952	truth_conditions	bare	ears	generic	24	pink	70	False	elleps
1	3151	truth_conditions	danger	stripes	generic	25	copper	90	False	mooks
1	4948	truth_conditions	distinct	stripes	generic	26	silver	90	False	frams
1	2868	truth_conditions	danger	scales	generic	27	red	50	False	blins
1	2655	truth_conditions	bare	teeth	generic	28	pink	90	False	krivels
1	3013	truth_conditions	bare	fur	generic	29	yellow	50	False	ollers
2	17982	truth_conditions	distinct	shells	generic	0	green	90	True	moxes
2	15665	truth_conditions	bare	tails	generic	1	orange	10	False	zorbs
2	9685	truth_conditions	danger	scales	generic	2	blue	90	True	reesles
2	9616	truth_conditions	bare	scales	generic	3	yellow	50	True	dorbs
2	5836	truth_conditions	danger	fur	generic	4	silver	70	True	morseths
2	2960	truth_conditions	bare	legs	generic	5	pink	50	True	feps
2	7674	truth_conditions	danger	feathers	generic	6	gold	70	True	plovs
2	7011	truth_conditions	distinct	ears	generic	7	orange	70	True	kazzes
2	6085	truth_conditions	bare	teeth	generic	8	pink	10	False	krivels
2	4928	truth_conditions	danger	legs	generic	9	yellow	50	True	ludinos
2	5051	truth_conditions	distinct	legs	generic	10	silver	90	True	ackles
2	2940	truth_conditions	bare	stripes	generic	11	gold	50	True	daiths
2	75260	truth_conditions	distinct	scales	generic	12	red	30	False	blins
2	8494	truth_conditions	bare	shells	generic	13	orange	70	True	luzaks
2	2547	truth_conditions	bare	feathers	generic	14	red	90	True	noobs
2	8249	truth_conditions	distinct	fur	generic	15	copper	70	True	kweps
2	2528	truth_conditions	bare	spots	generic	16	gold	90	True	stups
2	3383	truth_conditions	bare	ears	generic	17	pink	30	False	elleps
2	6420	truth_conditions	distinct	tails	generic	18	green	10	False	trufts
2	2681	truth_conditions	danger	teeth	generic	19	green	50	True	zoovs
2	17749	truth_conditions	distinct	spots	generic	20	copper	30	True	glippets
2	12588	truth_conditions	danger	shells	generic	21	purple	30	False	javs
2	6105	truth_conditions	danger	tails	generic	22	purple	30	False	taifels
2	5944	truth_conditions	bare	fur	generic	23	yellow	50	True	ollers
2	9022	truth_conditions	distinct	stripes	generic	24	silver	10	False	frams
2	7220	truth_conditions	danger	spots	generic	25	red	10	False	sapers
2	7420	truth_conditions	danger	stripes	generic	26	copper	10	False	mooks
2	6156	truth_conditions	distinct	teeth	generic	27	blue	30	True	thups
2	5255	truth_conditions	distinct	feathers	generic	28	purple	70	True	lorches
2	4963	truth_conditions	danger	ears	generic	29	blue	90	True	cheebas
3	14016	truth_conditions	distinct	scales	generic	0	yellow	50	True	dorbs
3	7269	truth_conditions	danger	tails	generic	1	orange	70	True	zorbs
3	5700	truth_conditions	bare	teeth	generic	2	green	30	True	zoovs
3	4083	truth_conditions	danger	feathers	generic	3	purple	10	True	lorches
3	6237	truth_conditions	danger	spots	generic	4	copper	30	True	glippets
3	3195	truth_conditions	bare	scales	generic	5	blue	70	True	reesles
3	2149	truth_conditions	bare	ears	generic	6	pink	30	True	elleps
3	3701	truth_conditions	danger	teeth	generic	7	blue	30	True	thups
3	2381	truth_conditions	bare	tails	generic	8	purple	90	True	taifels
3	3303	truth_conditions	distinct	ears	generic	9	orange	50	True	kazzes
3	3733	truth_conditions	danger	shells	generic	10	green	90	True	moxes
3	5249	truth_conditions	bare	legs	generic	11	yellow	10	False	ludinos
3	2364	truth_conditions	bare	shells	generic	12	purple	30	True	javs
3	3560	truth_conditions	danger	scales	generic	13	red	50	True	blins
3	2289	truth_conditions	distinct	legs	generic	14	pink	90	True	feps
3	2284	truth_conditions	distinct	feathers	generic	15	gold	50	True	plovs
3	2413	truth_conditions	bare	fur	generic	16	copper	70	True	kweps
3	1768	truth_conditions	bare	stripes	generic	17	gold	70	True	daiths
3	2651	truth_conditions	danger	legs	generic	18	silver	50	True	ackles
3	2583	truth_conditions	distinct	fur	generic	19	silver	30	True	morseths
3	2115	truth_conditions	distinct	teeth	generic	20	pink	50	True	krivels
3	2571	truth_conditions	distinct	spots	generic	21	gold	10	False	stups
3	2112	truth_conditions	bare	spots	generic	22	red	70	True	sapers
3	4036	truth_conditions	distinct	stripes	generic	23	silver	10	False	frams
3	2131	truth_conditions	danger	ears	generic	24	blue	90	True	cheebas
3	3634	truth_conditions	danger	fur	generic	25	yellow	10	False	ollers
3	3902	truth_conditions	danger	stripes	generic	26	copper	10	False	mooks
3	2030	truth_conditions	bare	feathers	generic	27	red	90	True	noobs
3	2350	truth_conditions	distinct	shells	generic	28	orange	90	True	luzaks
3	3449	truth_conditions	distinct	tails	generic	29	green	70	True	trufts
4	10330	truth_conditions	bare	stripes	generic	0	copper	50	True	mooks
4	11495	truth_conditions	danger	legs	generic	1	pink	70	True	feps
4	11139	truth_conditions	danger	feathers	generic	2	purple	10	True	lorches
4	5024	truth_conditions	bare	scales	generic	3	yellow	90	True	dorbs
4	4987	truth_conditions	bare	feathers	generic	4	gold	90	True	plovs
4	7958	truth_conditions	danger	scales	generic	5	blue	50	True	reesles
4	47397	truth_conditions	distinct	teeth	generic	6	pink	70	True	krivels
4	7268	truth_conditions	bare	teeth	generic	7	blue	10	True	thups
4	4798	truth_conditions	bare	tails	generic	8	purple	70	True	taifels
4	9717	truth_conditions	distinct	spots	generic	9	red	10	True	sapers
4	10175	truth_conditions	distinct	stripes	generic	10	gold	30	True	daiths
4	20607	truth_conditions	distinct	ears	generic	11	orange	30	True	kazzes
4	14218	truth_conditions	distinct	legs	generic	12	silver	30	True	ackles
4	6986	truth_conditions	distinct	fur	generic	13	silver	90	True	morseths
4	14332	truth_conditions	danger	shells	generic	14	orange	30	True	luzaks
4	14770	truth_conditions	distinct	tails	generic	15	green	10	True	trufts
4	239227	truth_conditions	danger	teeth	generic	16	green	90	True	zoovs
4	5514	truth_conditions	bare	legs	generic	17	yellow	70	True	ludinos
4	39172	truth_conditions	bare	shells	generic	18	purple	50	True	javs
4	5068	truth_conditions	bare	spots	generic	19	copper	10	True	glippets
4	17706	truth_conditions	distinct	scales	generic	20	red	30	True	blins
4	8338	truth_conditions	danger	tails	generic	21	orange	50	True	zorbs
4	3665	truth_conditions	danger	stripes	generic	22	silver	50	True	frams
4	3364	truth_conditions	danger	ears	generic	23	pink	10	True	elleps
4	5435	truth_conditions	bare	fur	generic	24	yellow	70	True	ollers
4	9510	truth_conditions	danger	fur	generic	25	copper	30	True	kweps
4	4526	truth_conditions	danger	spots	generic	26	gold	70	True	stups
4	6480	truth_conditions	distinct	feathers	generic	27	red	90	True	noobs
4	17821	truth_conditions	distinct	shells	generic	28	green	90	False	moxes
4	5681	truth_conditions	bare	ears	generic	29	blue	50	True	cheebas
5	21287	truth_conditions	danger	teeth	generic	0	pink	30	True	krivels
5	7524	truth_conditions	danger	shells	generic	1	green	90	True	moxes
5	6669	truth_conditions	bare	ears	generic	2	blue	10	False	cheebas
5	2440	truth_conditions	bare	fur	generic	3	copper	70	True	kweps
5	9466	truth_conditions	bare	feathers	generic	4	purple	50	True	lorches
5	4648	truth_conditions	bare	stripes	generic	5	silver	10	False	frams
5	4983	truth_conditions	danger	scales	generic	6	red	90	True	blins
5	8117	truth_conditions	distinct	legs	generic	7	yellow	70	True	ludinos
5	7044	truth_conditions	distinct	spots	generic	8	red	50	True	sapers
5	4293	truth_conditions	danger	legs	generic	9	silver	90	True	ackles
5	6207	truth_conditions	danger	fur	generic	10	silver	50	True	morseths
5	5409	truth_conditions	distinct	teeth	generic	11	green	30	False	zoovs
5	2253	truth_conditions	bare	scales	generic	12	blue	50	True	reesles
5	3732	truth_conditions	bare	tails	generic	13	green	70	True	trufts
5	57761	truth_conditions	danger	tails	generic	14	purple	10	True	taifels
5	5973	truth_conditions	danger	feathers	generic	15	red	30	True	noobs
5	3159	truth_conditions	danger	ears	generic	16	pink	70	False	elleps
5	2491	truth_conditions	bare	teeth	generic	17	blue	50	False	thups
5	8138	truth_conditions	distinct	scales	generic	18	yellow	30	True	dorbs
5	6378	truth_conditions	danger	stripes	generic	19	copper	90	False	mooks
5	2764	truth_conditions	bare	spots	generic	20	gold	90	False	stups
5	2850	truth_conditions	bare	shells	generic	21	orange	10	True	luzaks
5	7711	truth_conditions	distinct	shells	generic	22	purple	50	True	javs
5	9125	truth_conditions	danger	spots	generic	23	copper	10	False	glippets
5	12424	truth_conditions	distinct	fur	generic	24	yellow	30	True	ollers
5	6843	truth_conditions	distinct	ears	generic	25	orange	10	False	kazzes
5	2863	truth_conditions	bare	legs	generic	26	pink	90	True	feps
5	3844	truth_conditions	distinct	tails	generic	27	orange	70	True	zorbs
5	5891	truth_conditions	distinct	stripes	generic	28	gold	30	False	daiths
5	4707	truth_conditions	distinct	feathers	generic	29	gold	70	True	plovs
6	4470	truth_conditions	distinct	fur	generic	0	copper	70	True	kweps
6	4133	truth_conditions	danger	spots	generic	1	copper	70	True	glippets
6	3035	truth_conditions	danger	legs	generic	2	silver	50	True	ackles
6	1760	truth_conditions	bare	legs	generic	3	yellow	90	True	ludinos
6	2213	truth_conditions	distinct	ears	generic	4	blue	50	True	cheebas
6	3627	truth_conditions	danger	stripes	generic	5	silver	30	False	frams
6	4139	truth_conditions	danger	shells	generic	6	green	30	False	moxes
6	1420	truth_conditions	bare	spots	generic	7	gold	90	True	stups
6	1554	truth_conditions	distinct	shells	generic	8	orange	90	True	luzaks
6	1858	truth_conditions	bare	stripes	generic	9	copper	70	True	mooks
6	1950	truth_conditions	danger	fur	generic	10	silver	90	True	morseths
6	2264	truth_conditions	bare	teeth	generic	11	pink	10	False	krivels
6	4269	truth_conditions	danger	teeth	generic	12	green	10	False	zoovs
6	1904	truth_conditions	danger	scales	generic	13	yellow	70	True	dorbs
6	1479	truth_conditions	bare	scales	generic	14	blue	10	False	reesles
6	1412	truth_conditions	danger	ears	generic	15	orange	90	True	kazzes
6	3234	truth_conditions	distinct	legs	generic	16	pink	10	False	feps
6	4197	truth_conditions	distinct	teeth	generic	17	blue	50	False	thups
6	2178	truth_conditions	bare	fur	generic	18	yellow	50	False	ollers
6	1770	truth_conditions	distinct	tails	generic	19	purple	70	True	taifels
6	2130	truth_conditions	bare	tails	generic	20	orange	10	False	zorbs
6	1260	truth_conditions	bare	feathers	generic	21	gold	30	False	plovs
6	3380	truth_conditions	distinct	spots	generic	22	red	30	False	sapers
6	1699	truth_conditions	bare	ears	generic	23	pink	90	True	elleps
6	2837	truth_conditions	distinct	feathers	generic	24	purple	30	True	lorches
6	1875	truth_conditions	danger	tails	generic	25	green	10	False	trufts
6	2137	truth_conditions	danger	feathers	generic	26	red	50	False	noobs
6	1781	truth_conditions	bare	shells	generic	27	purple	30	False	javs
6	2182	truth_conditions	distinct	stripes	generic	28	gold	50	True	daiths
6	1770	truth_conditions	distinct	scales	generic	29	red	70	True	blins
7	7328	truth_conditions	distinct	ears	generic	0	blue	90	True	cheebas
7	6018	truth_conditions	danger	shells	generic	1	purple	10	False	javs
7	3091	truth_conditions	bare	feathers	generic	2	red	70	True	noobs
7	3926	truth_conditions	distinct	teeth	generic	3	blue	10	False	thups
7	2658	truth_conditions	bare	scales	generic	4	blue	50	True	reesles
7	25356	truth_conditions	distinct	legs	generic	5	pink	30	False	feps
7	2193	truth_conditions	bare	ears	generic	6	orange	50	True	kazzes
7	152926	truth_conditions	danger	feathers	generic	7	purple	30	False	lorches
7	2827	truth_conditions	distinct	spots	generic	8	red	30	False	sapers
7	2305	truth_conditions	danger	spots	generic	9	copper	70	True	glippets
7	6307	truth_conditions	bare	fur	generic	10	silver	10	False	morseths
7	2748	truth_conditions	bare	teeth	generic	11	green	10	False	zoovs
7	3524	truth_conditions	distinct	scales	generic	12	yellow	90	True	dorbs
7	30357	truth_conditions	bare	legs	generic	13	silver	50	True	ackles
7	2058	truth_conditions	bare	spots	generic	14	gold	50	True	stups
7	2552	truth_conditions	danger	tails	generic	15	purple	30	False	taifels
7	2081	truth_conditions	danger	scales	generic	16	red	30	False	blins
7	1818	truth_conditions	distinct	shells	generic	17	green	50	True	moxes
7	2016	truth_conditions	distinct	fur	generic	18	yellow	90	True	ollers
7	2609	truth_conditions	danger	teeth	generic	19	pink	90	True	krivels
7	2099	truth_conditions	distinct	stripes	generic	20	gold	10	False	daiths
7	2667	truth_conditions	bare	shells	generic	21	orange	70	True	luzaks
7	2258	truth_conditions	distinct	feathers	generic	22	gold	10	False	plovs
7	1949	truth_conditions	bare	tails	generic	23	green	90	True	trufts
7	2362	truth_conditions	danger	ears	generic	24	pink	90	True	elleps
7	3421	truth_conditions	danger	fur	generic	25	copper	70	True	kweps
7	1927	truth_conditions	danger	legs	generic	26	yellow	70	True	ludinos
7	4601	truth_conditions	distinct	tails	generic	27	orange	50	True	zorbs
7	2549	truth_conditions	bare	stripes	generic	28	silver	30	False	frams
7	2883	truth_conditions	danger	stripes	generic	29	copper	70	True	mooks
8	5648	truth_conditions	bare	legs	generic	0	pink	90	True	feps
8	5701	truth_conditions	bare	tails	generic	1	green	30	True	trufts
8	3708	truth_conditions	bare	fur	generic	2	yellow	10	True	ollers
8	8127	truth_conditions	danger	scales	generic	3	red	10	True	blins
8	3196	truth_conditions	bare	feathers	generic	4	gold	30	True	plovs
8	4535	truth_conditions	danger	tails	generic	5	purple	70	True	taifels
8	7205	truth_conditions	distinct	fur	generic	6	copper	70	True	kweps
8	6492	truth_conditions	bare	stripes	generic	7	gold	30	True	daiths
8	4275	truth_conditions	distinct	stripes	generic	8	silver	10	True	frams
8	3308	truth_conditions	danger	fur	generic	9	silver	50	True	morseths
8	2829	truth_conditions	danger	spots	generic	10	red	30	True	sapers
8	3276	truth_conditions	bare	teeth	generic	11	pink	50	True	krivels
8	3229	truth_conditions	danger	teeth	generic	12	blue	90	True	thups
8	2405	truth_conditions	danger	stripes	generic	13	copper	90	True	mooks
8	2869	truth_conditions	danger	legs	generic	14	silver	10	True	ackles
8	3582	truth_conditions	danger	feathers	generic	15	purple	90	True	lorches
8	2517	truth_conditions	bare	ears	generic	16	pink	50	True	elleps
8	2636	truth_conditions	distinct	teeth	generic	17	green	50	True	zoovs
8	2130	truth_conditions	distinct	legs	generic	18	yellow	70	True	ludinos
8	2783	truth_conditions	distinct	tails	generic	19	orange	10	True	zorbs
8	3565	truth_conditions	distinct	feathers	generic	20	red	30	True	noobs
8	2039	truth_conditions	distinct	shells	generic	21	orange	90	True	luzaks
8	3550	truth_conditions	distinct	spots	generic	22	copper	30	True	glippets
8	15839	truth_conditions	bare	shells	generic	23	green	90	True	moxes
8	2173	truth_conditions	bare	spots	generic	24	gold	10	True	stups
8	3135	truth_conditions	distinct	ears	generic	25	orange	70	True	kazzes
8	2498	truth_conditions	bare	scales	generic	26	blue	70	True	reesles
8	2850	truth_conditions	danger	shells	generic	27	purple	50	True	javs
8	4343	truth_conditions	distinct	scales	generic	28	yellow	50	True	dorbs
8	4802	truth_conditions	danger	ears	generic	29	blue	70	True	cheebas
9	11859	truth_conditions	danger	tails	generic	0	green	70	True	trufts
9	6586	truth_conditions	distinct	shells	generic	1	purple	70	False	javs
9	3961	truth_conditions	bare	stripes	generic	2	gold	10	False	daiths
9	9875	truth_conditions	distinct	spots	generic	3	gold	50	False	stups
9	5121	truth_conditions	distinct	tails	generic	4	orange	30	False	zorbs
9	4130	truth_conditions	distinct	fur	generic	5	silver	10	False	morseths
9	3377	truth_conditions	danger	fur	generic	6	yellow	50	False	ollers
9	2728	truth_conditions	danger	legs	generic	7	yellow	70	False	ludinos
9	2049	truth_conditions	distinct	stripes	generic	8	copper	90	False	mooks
9	1974	truth_conditions	distinct	scales	generic	9	red	50	False	blins
9	4084	truth_conditions	danger	shells	generic	10	orange	90	False	luzaks
9	2021	truth_conditions	distinct	ears	generic	11	orange	90	False	kazzes
9	2330	truth_conditions	danger	ears	generic	12	blue	90	False	cheebas
9	2098	truth_conditions	bare	scales	generic	13	yellow	10	False	dorbs
9	6245	truth_conditions	danger	spots	generic	14	copper	30	False	glippets
9	2203	truth_conditions	distinct	legs	generic	15	pink	30	False	feps
9	2016	truth_conditions	bare	spots	generic	16	red	30	False	sapers
9	1784	truth_conditions	bare	fur	generic	17	copper	90	False	kweps
9	1983	truth_conditions	bare	tails	generic	18	purple	70	False	taifels
9	1770	truth_conditions	bare	legs	generic	19	silver	70	False	ackles
9	1753	truth_conditions	bare	teeth	generic	20	blue	10	False	thups
9	41961	truth_conditions	danger	feathers	generic	21	purple	50	False	lorches
9	1677	truth_conditions	bare	feathers	generic	22	red	30	False	noobs
9	1417	truth_conditions	danger	teeth	generic	23	green	10	False	zoovs
9	1507	truth_conditions	distinct	feathers	generic	24	gold	30	False	plovs
9	4640	truth_conditions	bare	ears	generic	25	pink	50	False	elleps
9	1292	truth_conditions	danger	scales	generic	26	blue	10	False	reesles
9	2302	truth_conditions	bare	shells	generic	27	green	90	True	moxes
9	2538	truth_conditions	danger	stripes	generic	28	silver	50	False	frams
9	3077	truth_conditions	distinct	teeth	generic	29	pink	70	False	krivels
10	7386	truth_conditions	bare	legs	generic	0	yellow	50	True	ludinos
10	6813	truth_conditions	danger	feathers	generic	1	gold	30	True	plovs
10	6456	truth_conditions	distinct	scales	generic	2	blue	70	True	reesles
10	3822	truth_conditions	bare	scales	generic	3	yellow	50	True	dorbs
10	4924	truth_conditions	bare	shells	generic	4	purple	30	False	javs
10	5527	truth_conditions	distinct	legs	generic	5	pink	90	True	feps
10	4016	truth_conditions	danger	shells	generic	6	orange	30	True	luzaks
10	5135	truth_conditions	danger	fur	generic	7	silver	30	True	morseths
10	2964	truth_conditions	bare	stripes	generic	8	gold	10	False	daiths
10	3457	truth_conditions	distinct	stripes	generic	9	copper	90	True	mooks
10	2377	truth_conditions	bare	teeth	generic	10	pink	90	True	krivels
10	5626	truth_conditions	danger	ears	generic	11	pink	10	True	elleps
10	5921	truth_conditions	distinct	ears	generic	12	orange	50	True	kazzes
10	3929	truth_conditions	distinct	teeth	generic	13	green	10	False	zoovs
10	5939	truth_conditions	distinct	tails	generic	14	green	70	True	trufts
10	3824	truth_conditions	distinct	spots	generic	15	red	50	True	sapers
10	2953	truth_conditions	bare	ears	generic	16	blue	10	False	cheebas
10	2073	truth_conditions	bare	fur	generic	17	yellow	50	True	ollers
10	2895	truth_conditions	distinct	shells	generic	18	green	70	True	moxes
10	3103	truth_conditions	distinct	fur	generic	19	copper	10	False	kweps
10	4415	truth_conditions	danger	legs	generic	20	silver	90	True	ackles
10	3545	truth_conditions	bare	feathers	generic	21	purple	70	True	lorches
10	3126	truth_conditions	danger	teeth	generic	22	blue	90	True	thups
10	2516	truth_conditions	danger	tails	generic	23	purple	70	True	taifels
10	2337	truth_conditions	danger	stripes	generic	24	silver	10	True	frams
10	3926	truth_conditions	danger	spots	generic	25	copper	90	True	glippets
10	2231	truth_conditions	danger	scales	generic	26	red	50	True	blins
10	2253	truth_conditions	bare	tails	generic	27	orange	30	False	zorbs
10	2477	truth_conditions	distinct	feathers	generic	28	red	70	True	noobs
10	2159	truth_conditions	bare	spots	generic	29	gold	30	False	stups
11	12363	truth_conditions	distinct	stripes	generic	0	copper	70	True	mooks
11	8236	truth_conditions	danger	tails	generic	1	orange	50	True	zorbs
11	8967	truth_conditions	danger	feathers	generic	2	gold	70	True	plovs
11	5502	truth_conditions	distinct	fur	generic	3	copper	70	True	kweps
11	8253	truth_conditions	distinct	ears	generic	4	pink	30	False	elleps
11	10882	truth_conditions	danger	scales	generic	5	blue	10	True	reesles
11	8458	truth_conditions	bare	spots	generic	6	gold	30	False	stups
11	4702	truth_conditions	bare	legs	generic	7	yellow	70	True	ludinos
11	6530	truth_conditions	distinct	scales	generic	8	red	50	True	blins
11	7733	truth_conditions	danger	ears	generic	9	orange	30	True	kazzes
11	6532	truth_conditions	bare	fur	generic	10	yellow	30	False	ollers
11	3453	truth_conditions	bare	shells	generic	11	orange	90	True	luzaks
11	4726	truth_conditions	bare	stripes	generic	12	silver	10	False	frams
11	5951	truth_conditions	bare	tails	generic	13	purple	10	False	taifels
11	6239	truth_conditions	distinct	feathers	generic	14	red	70	True	noobs
11	5136	truth_conditions	danger	stripes	generic	15	gold	70	True	daiths
11	8022	truth_conditions	danger	fur	generic	16	silver	10	True	morseths
11	6047	truth_conditions	distinct	spots	generic	17	copper	90	True	glippets
11	5828	truth_conditions	bare	scales	generic	18	yellow	50	True	dorbs
11	6472	truth_conditions	distinct	tails	generic	19	green	90	True	trufts
11	5246	truth_conditions	distinct	shells	generic	20	green	10	False	moxes
11	5428	truth_conditions	danger	legs	generic	21	pink	50	True	feps
11	3890	truth_conditions	danger	teeth	generic	22	green	90	True	zoovs
11	4483	truth_conditions	distinct	teeth	generic	23	pink	90	True	krivels
11	3708	truth_conditions	bare	teeth	generic	24	blue	10	False	thups
11	5647	truth_conditions	distinct	legs	generic	25	silver	50	True	ackles
11	7077	truth_conditions	danger	shells	generic	26	purple	90	True	javs
11	6604	truth_conditions	danger	spots	generic	27	red	50	True	sapers
11	6920	truth_conditions	bare	feathers	generic	28	purple	30	False	lorches
11	3815	truth_conditions	bare	ears	generic	29	blue	30	False	cheebas
12	12331	truth_conditions	bare	legs	generic	0	yellow	90	True	ludinos
12	6300	truth_conditions	bare	tails	generic	1	orange	70	True	zorbs
12	4789	truth_conditions	bare	fur	generic	2	silver	50	True	morseths
12	10055	truth_conditions	danger	ears	generic	3	pink	30	False	elleps
12	9382	truth_conditions	danger	spots	generic	4	gold	50	False	stups
12	7247	truth_conditions	distinct	feathers	generic	5	red	10	True	noobs
12	7181	truth_conditions	danger	legs	generic	6	silver	90	True	ackles
12	8614	truth_conditions	distinct	tails	generic	7	purple	70	True	taifels
12	6118	truth_conditions	distinct	ears	generic	8	blue	70	True	cheebas
12	5584	truth_conditions	distinct	legs	generic	9	pink	70	False	feps
12	7383	truth_conditions	danger	feathers	generic	10	gold	90	True	plovs
12	5663	truth_conditions	distinct	scales	generic	11	yellow	90	True	dorbs
12	4648	truth_conditions	distinct	shells	generic	12	green	10	True	moxes
12	8579	truth_conditions	danger	shells	generic	13	purple	90	True	javs
12	4862	truth_conditions	distinct	teeth	generic	14	pink	30	True	krivels
12	6013	truth_conditions	bare	ears	generic	15	orange	70	True	kazzes
12	4886	truth_conditions	bare	scales	generic	16	red	10	True	blins
12	7467	truth_conditions	danger	fur	generic	17	copper	30	True	kweps
12	5297	truth_conditions	bare	stripes	generic	18	gold	90	True	daiths
12	6268	truth_conditions	distinct	spots	generic	19	copper	50	True	glippets
12	5096	truth_conditions	bare	shells	generic	20	orange	30	True	luzaks
12	6896	truth_conditions	distinct	fur	generic	21	yellow	50	False	ollers
12	4300	truth_conditions	danger	tails	generic	22	green	30	True	trufts
12	3938	truth_conditions	bare	teeth	generic	23	green	10	True	zoovs
12	8076	truth_conditions	danger	scales	generic	24	blue	10	True	reesles
12	8172	truth_conditions	danger	stripes	generic	25	copper	50	False	mooks
12	7716	truth_conditions	distinct	stripes	generic	26	silver	50	True	frams
12	4664	truth_conditions	bare	feathers	generic	27	purple	30	False	lorches
12	4043	truth_conditions	bare	spots	generic	28	red	70	True	sapers
12	9190	truth_conditions	danger	teeth	generic	29	blue	10	True	thups
13	5738	truth_conditions	distinct	fur	generic	0	copper	90	True	kweps
13	7963	truth_conditions	danger	feathers	generic	1	red	10	True	noobs
13	3758	truth_conditions	distinct	ears	generic	2	orange	50	True	kazzes
13	3730	truth_conditions	danger	ears	generic	3	pink	70	True	elleps
13	3745	truth_conditions	bare	ears	generic	4	blue	70	True	cheebas
13	3805	truth_conditions	distinct	legs	generic	5	yellow	50	True	ludinos
13	2208	truth_conditions	danger	legs	generic	6	silver	90	True	ackles
13	2638	truth_conditions	distinct	tails	generic	7	orange	50	True	zorbs
13	1765	truth_conditions	distinct	scales	generic	8	blue	90	True	reesles
13	8108	truth_conditions	danger	fur	generic	9	yellow	10	True	ollers
13	2395	truth_conditions	bare	scales	generic	10	yellow	90	True	dorbs
13	2428	truth_conditions	distinct	teeth	generic	11	pink	90	True	krivels
13	2310	truth_conditions	bare	teeth	generic	12	blue	70	True	thups
13	3585	truth_conditions	danger	shells	generic	13	purple	70	True	javs
13	2405	truth_conditions	danger	teeth	generic	14	green	50	True	zoovs
13	2080	truth_conditions	distinct	spots	generic	15	red	70	True	sapers
13	2710	truth_conditions	bare	tails	generic	16	green	30	False	trufts
13	2142	truth_conditions	bare	fur	generic	17	silver	30	False	morseths
13	1323	truth_conditions	bare	legs	generic	18	pink	50	True	feps
13	1670	truth_conditions	bare	feathers	generic	19	gold	30	False	plovs
13	4523	truth_conditions	distinct	shells	generic	20	green	90	True	moxes
13	2460	truth_conditions	distinct	stripes	generic	21	gold	10	False	daiths
13	3200	truth_conditions	danger	spots	generic	22	gold	30	False	stups
13	2065	truth_conditions	bare	spots	generic	23	copper	30	False	glippets
13	1695	truth_conditions	distinct	feathers	generic	24	purple	70	True	lorches
13	1992	truth_conditions	danger	tails	generic	25	purple	50	True	taifels
13	2117	truth_conditions	bare	shells	generic	26	orange	10	False	luzaks
13	2357	truth_conditions	danger	stripes	generic	27	silver	10	False	frams
13	1875	truth_conditions	danger	scales	generic	28	red	10	False	blins
13	1820	truth_conditions	bare	stripes	generic	29	copper	30	True	mooks
14	11452	truth_conditions	danger	teeth	generic	0	blue	90	True	thups
14	8649	truth_conditions	bare	stripes	generic	1	copper	50	True	mooks
14	14027	truth_conditions	distinct	stripes	generic	2	silver	50	True	frams
14	5463	truth_conditions	bare	scales	generic	3	blue	50	True	reesles
14	10711	truth_conditions	danger	shells	generic	4	green	90	True	moxes
14	5271	truth_conditions	bare	shells	generic	5	purple	90	True	javs
14	3631	truth_conditions	bare	spots	generic	6	red	70	True	sapers
14	11423	truth_conditions	danger	spots	generic	7	copper	50	True	glippets
14	4848	truth_conditions	danger	ears	generic	8	blue	70	False	cheebas
14	4271	truth_conditions	bare	ears	generic	9	orange	30	False	kazzes
14	3968	truth_conditions	distinct	teeth	generic	10	pink	30	False	krivels
14	3163	truth_conditions	distinct	spots	generic	11	gold	70	True	stups
14	3351	truth_conditions	distinct	tails	generic	12	purple	70	True	taifels
14	1575	truth_conditions	danger	fur	generic	13	silver	30	False	morseths
14	3399	truth_conditions	danger	stripes	generic	14	gold	70	True	daiths
14	6031	truth_conditions	distinct	legs	generic	15	silver	10	False	ackles
14	2603	truth_conditions	distinct	shells	generic	16	orange	30	False	luzaks
14	2927	truth_conditions	bare	tails	generic	17	orange	10	False	zorbs
14	2639	truth_conditions	bare	feathers	generic	18	red	70	True	noobs
14	5432	truth_conditions	distinct	scales	generic	19	yellow	10	False	dorbs
14	2005	truth_conditions	distinct	feathers	generic	20	gold	10	False	plovs
14	1768	truth_conditions	distinct	ears	generic	21	pink	30	False	elleps
14	1622	truth_conditions	danger	feathers	generic	22	purple	10	False	lorches
14	1879	truth_conditions	danger	tails	generic	23	green	30	False	trufts
14	1768	truth_conditions	distinct	fur	generic	24	copper	10	False	kweps
14	2492	truth_conditions	bare	legs	generic	25	yellow	50	True	ludinos
14	1718	truth_conditions	bare	teeth	generic	26	green	90	True	zoovs
14	2055	truth_conditions	danger	legs	generic	27	pink	50	True	feps
14	2434	truth_conditions	bare	fur	generic	28	yellow	90	True	ollers
14	2948	truth_conditions	danger	scales	generic	29	red	90	True	blins
15	13784	truth_conditions	danger	stripes	generic	0	silver	30	False	frams
15	8403	truth_conditions	danger	tails	generic	1	green	70	False	trufts
15	4585	truth_conditions	danger	ears	generic	2	orange	10	False	kazzes
15	4311	truth_conditions	distinct	ears	generic	3	blue	90	True	cheebas
15	3906	truth_conditions	distinct	feathers	generic	4	red	10	False	noobs
15	4462	truth_conditions	distinct	fur	generic	5	silver	50	False	morseths
15	3843	truth_conditions	danger	legs	generic	6	pink	50	False	feps
15	2656	truth_conditions	bare	legs	generic	7	yellow	90	True	ludinos
15	2780	truth_conditions	bare	tails	generic	8	purple	10	False	taifels
15	3977	truth_conditions	distinct	teeth	generic	9	pink	10	False	krivels
15	3514	truth_conditions	bare	scales	generic	10	blue	30	False	reesles
15	2322	truth_conditions	bare	fur	generic	11	copper	30	False	kweps
15	7030	truth_conditions	distinct	shells	generic	12	orange	50	False	luzaks
15	2282	truth_conditions	distinct	scales	generic	13	yellow	90	True	dorbs
15	2718	truth_conditions	bare	spots	generic	14	copper	30	False	glippets
15	1868	truth_conditions	bare	feathers	generic	15	gold	90	True	plovs
15	3461	truth_conditions	distinct	stripes	generic	16	copper	10	False	mooks
15	2155	truth_conditions	bare	teeth	generic	17	green	90	True	zoovs
15	2008	truth_conditions	bare	ears	generic	18	pink	70	True	elleps
15	2578	truth_conditions	distinct	spots	generic	19	red	30	False	sapers
15	2400	truth_conditions	danger	shells	generic	20	purple	90	True	javs
15	1866	truth_conditions	bare	stripes	generic	21	gold	30	False	daiths
15	2500	truth_conditions	danger	fur	generic	22	yellow	50	False	ollers
15	1469	truth_conditions	distinct	tails	generic	23	orange	70	True	zorbs
15	3336	truth_conditions	danger	teeth	generic	24	blue	50	False	thups
15	3898	truth_conditions	danger	spots	generic	25	gold	70	True	stups
15	1843	truth_conditions	danger	scales	generic	26	red	10	False	blins
15	1898	truth_conditions	danger	feathers	generic	27	purple	50	False	lorches
15	1774	truth_conditions	bare	shells	generic	28	green	70	True	moxes
15	2476	truth_conditions	distinct	legs	generic	29	silver	70	True	ackles
16	11945	truth_conditions	danger	ears	generic	0	pink	10	True	elleps
16	2226	truth_conditions	distinct	stripes	generic	1	copper	10	True	mooks
16	4798	truth_conditions	distinct	tails	generic	2	orange	70	True	zorbs
16	3252	truth_conditions	danger	fur	generic	3	copper	70	True	kweps
16	2495	truth_conditions	bare	ears	generic	4	orange	30	True	kazzes
16	4167	truth_conditions	danger	spots	generic	5	copper	10	True	glippets
16	1372	truth_conditions	distinct	teeth	generic	6	green	50	True	zoovs
16	828	truth_conditions	danger	teeth	generic	7	pink	50	True	krivels
16	2018	truth_conditions	bare	teeth	generic	8	blue	90	True	thups
16	4915	truth_conditions	distinct	fur	generic	9	silver	50	True	morseths
16	2628	truth_conditions	bare	fur	generic	10	yellow	50	True	ollers
16	1201	truth_conditions	danger	tails	generic	11	green	50	True	trufts
16	2120	truth_conditions	distinct	shells	generic	12	orange	90	True	luzaks
16	2178	truth_conditions	bare	feathers	generic	13	gold	90	True	plovs
16	2348	truth_conditions	bare	spots	generic	14	gold	10	True	stups
16	1344	truth_conditions	bare	scales	generic	15	blue	30	True	reesles
16	3105	truth_conditions	danger	legs	generic	16	silver	70	True	ackles
16	1800	truth_conditions	danger	feathers	generic	17	purple	10	True	lorches
16	1415	truth_conditions	danger	stripes	generic	18	gold	90	True	daiths
16	1704	truth_conditions	bare	shells	generic	19	purple	70	True	javs
16	2197	truth_conditions	distinct	ears	generic	20	blue	30	True	cheebas
16	1988	truth_conditions	bare	stripes	generic	21	silver	50	True	frams
16	2524	truth_conditions	danger	scales	generic	22	yellow	10	True	dorbs
16	1678	truth_conditions	distinct	feathers	generic	23	red	90	True	noobs
16	1787	truth_conditions	bare	legs	generic	24	yellow	30	True	ludinos
16	1366	truth_conditions	bare	tails	generic	25	purple	30	True	taifels
16	1495	truth_conditions	distinct	legs	generic	26	pink	30	True	feps
16	1136	truth_conditions	danger	shells	generic	27	green	90	True	moxes
16	1136	truth_conditions	distinct	scales	generic	28	red	70	True	blins
16	1054	truth_conditions	distinct	spots	generic	29	red	70	True	sapers
17	6061	truth_conditions	bare	ears	generic	0	blue	50	True	cheebas
17	6367	truth_conditions	danger	stripes	generic	1	gold	30	True	daiths
17	2879	truth_conditions	bare	fur	generic	2	yellow	50	True	ollers
17	2916	truth_conditions	bare	teeth	generic	3	blue	10	True	thups
17	2372	truth_conditions	bare	stripes	generic	4	silver	30	True	frams
17	4938	truth_conditions	distinct	stripes	generic	5	copper	70	True	mooks
17	3448	truth_conditions	bare	shells	generic	6	orange	30	True	luzaks
17	4259	truth_conditions	danger	shells	generic	7	purple	50	True	javs
17	2792	truth_conditions	distinct	spots	generic	8	red	90	True	sapers
17	2704	truth_conditions	distinct	ears	generic	9	orange	70	True	kazzes
17	3978	truth_conditions	distinct	shells	generic	10	green	10	True	moxes
17	4072	truth_conditions	danger	teeth	generic	11	pink	10	True	krivels
17	4127	truth_conditions	danger	spots	generic	12	copper	30	True	glippets
17	3478	truth_conditions	bare	tails	generic	13	green	90	True	trufts
17	4700	truth_conditions	danger	feathers	generic	14	purple	50	True	lorches
17	3855	truth_conditions	distinct	tails	generic	15	purple	50	True	taifels
17	5665	truth_conditions	distinct	teeth	generic	16	green	10	False	zoovs
17	3288	truth_conditions	bare	scales	generic	17	red	90	True	blins
17	1970	truth_conditions	bare	legs	generic	18	yellow	70	True	ludinos
17	3368	truth_conditions	danger	scales	generic	19	blue	90	True	reesles
17	2990	truth_conditions	distinct	legs	generic	20	silver	30	True	ackles
17	3808	truth_conditions	distinct	scales	generic	21	yellow	10	True	dorbs
17	2910	truth_conditions	danger	tails	generic	22	orange	70	True	zorbs
17	3414	truth_conditions	bare	spots	generic	23	gold	90	True	stups
17	2744	truth_conditions	distinct	fur	generic	24	copper	30	True	kweps
17	3020	truth_conditions	danger	fur	generic	25	silver	90	True	morseths
17	3020	truth_conditions	distinct	feathers	generic	26	gold	70	True	plovs
17	2484	truth_conditions	danger	ears	generic	27	pink	10	True	elleps
17	2236	truth_conditions	bare	feathers	generic	28	red	50	True	noobs
17	4017	truth_conditions	danger	legs	generic	29	pink	70	True	feps
18	9629	truth_conditions	bare	feathers	generic	0	gold	50	True	plovs
18	8858	truth_conditions	danger	shells	generic	1	purple	90	True	javs
18	7100	truth_conditions	danger	legs	generic	2	yellow	30	True	ludinos
18	8733	truth_conditions	bare	shells	generic	3	orange	10	False	luzaks
18	7005	truth_conditions	distinct	spots	generic	4	copper	50	True	glippets
18	9584	truth_conditions	danger	feathers	generic	5	red	30	True	noobs
18	7898	truth_conditions	distinct	tails	generic	6	purple	10	False	taifels
18	3209	truth_conditions	distinct	fur	generic	7	silver	90	True	morseths
18	4662	truth_conditions	danger	scales	generic	8	red	50	True	blins
18	2995	truth_conditions	bare	legs	generic	9	pink	10	False	feps
18	36691	truth_conditions	danger	tails	generic	10	green	90	True	trufts
18	2437	truth_conditions	distinct	feathers	generic	11	purple	90	True	lorches
18	4194	truth_conditions	distinct	shells	generic	12	green	70	True	moxes
18	2265	truth_conditions	distinct	legs	generic	13	silver	90	True	ackles
18	19441	truth_conditions	distinct	teeth	generic	14	pink	10	True	krivels
18	5029	truth_conditions	bare	tails	generic	15	orange	10	False	zorbs
18	3821	truth_conditions	distinct	stripes	generic	16	copper	70	True	mooks
18	5437	truth_conditions	bare	fur	generic	17	copper	30	True	kweps
18	4479	truth_conditions	distinct	ears	generic	18	pink	70	True	elleps
18	2438	truth_conditions	danger	spots	generic	19	red	90	True	sapers
18	7132	truth_conditions	bare	teeth	generic	20	green	30	True	zoovs
18	1934	truth_conditions	bare	stripes	generic	21	silver	70	True	frams
18	8260	truth_conditions	danger	teeth	generic	22	blue	50	True	thups
18	2878	truth_conditions	danger	stripes	generic	23	gold	70	True	daiths
18	2603	truth_conditions	bare	ears	generic	24	orange	70	True	kazzes
18	2723	truth_conditions	bare	spots	generic	25	gold	50	True	stups
18	4716	truth_conditions	distinct	scales	generic	26	yellow	10	True	dorbs
18	4900	truth_conditions	danger	fur	generic	27	yellow	30	True	ollers
18	7383	truth_conditions	danger	ears	generic	28	blue	30	True	cheebas
18	2053	truth_conditions	bare	scales	generic	29	blue	50	True	reesles
19	9388	truth_conditions	distinct	teeth	generic	0	blue	90	True	thups
19	7732	truth_conditions	distinct	fur	generic	1	copper	30	False	kweps
19	3131	truth_conditions	distinct	scales	generic	2	red	10	False	blins
19	6207	truth_conditions	danger	stripes	generic	3	gold	10	False	daiths
19	5501	truth_conditions	bare	teeth	generic	4	green	70	True	zoovs
19	6833	truth_conditions	danger	fur	generic	5	yellow	10	False	ollers
19	9591	truth_conditions	distinct	legs	generic	6	silver	70	True	ackles
19	3476	truth_conditions	danger	legs	generic	7	yellow	50	True	ludinos
19	6667	truth_conditions	danger	spots	generic	8	red	50	True	sapers
19	2521	truth_conditions	bare	stripes	generic	9	copper	30	False	mooks
19	4602	truth_conditions	distinct	spots	generic	10	gold	50	True	stups
19	2782	truth_conditions	distinct	shells	generic	11	purple	90	True	javs
19	12269	truth_conditions	distinct	ears	generic	12	pink	10	False	elleps
19	2344	truth_conditions	bare	spots	generic	13	copper	30	False	glippets
19	2639	truth_conditions	bare	legs	generic	14	pink	70	True	feps
19	2179	truth_conditions	bare	feathers	generic	15	gold	90	True	plovs
19	2970	truth_conditions	bare	scales	generic	16	yellow	10	False	dorbs
19	2442	truth_conditions	danger	shells	generic	17	green	90	True	moxes
19	5494	truth_conditions	bare	fur	generic	18	silver	90	True	morseths
19	2939	truth_conditions	bare	ears	generic	19	orange	70	True	kazzes
19	5277	truth_conditions	danger	scales	generic	20	blue	50	True	reesles
19	2562	truth_conditions	distinct	feathers	generic	21	red	30	False	noobs
19	2477	truth_conditions	danger	ears	generic	22	blue	30	False	cheebas
19	2033	truth_conditions	distinct	tails	generic	23	green	50	True	trufts
19	1678	truth_conditions	danger	feathers	generic	24	purple	70	True	lorches
19	2437	truth_conditions	distinct	stripes	generic	25	silver	10	False	frams
19	2908	truth_conditions	bare	tails	generic	26	purple	90	True	taifels
19	2577	truth_conditions	bare	shells	generic	27	orange	30	False	luzaks
19	3570	truth_conditions	danger	tails	generic	28	orange	70	True	zorbs
19	3019	truth_conditions	danger	teeth	generic	29	pink	50	True	krivels
20	10839	truth_conditions	danger	shells	generic	0	purple	10	True	javs
20	7649	truth_conditions	bare	tails	generic	1	purple	10	True	taifels
20	7230	truth_conditions	danger	tails	generic	2	orange	50	True	zorbs
20	5986	truth_conditions	distinct	fur	generic	3	copper	90	True	kweps
20	3213	truth_conditions	bare	legs	generic	4	silver	30	True	ackles
20	4672	truth_conditions	distinct	legs	generic	5	pink	30	True	feps
20	2151	truth_conditions	danger	teeth	generic	6	blue	30	True	thups
20	2099	truth_conditions	bare	teeth	generic	7	pink	70	True	krivels
20	3708	truth_conditions	distinct	teeth	generic	8	green	30	True	zoovs
20	2574	truth_conditions	bare	feathers	generic	9	red	90	True	noobs
20	5199	truth_conditions	distinct	spots	generic	10	copper	10	True	glippets
20	3335	truth_conditions	distinct	shells	generic	11	green	50	True	moxes
20	4248	truth_conditions	danger	spots	generic	12	gold	70	True	stups
20	2064	truth_conditions	distinct	tails	generic	13	green	50	True	trufts
20	1552	truth_conditions	bare	shells	generic	14	orange	90	True	luzaks
20	1536	truth_conditions	bare	fur	generic	15	yellow	50	True	ollers
20	3352	truth_conditions	danger	fur	generic	16	silver	70	True	morseths
20	3139	truth_conditions	bare	stripes	generic	17	silver	70	True	frams
20	2011	truth_conditions	danger	feathers	generic	18	gold	70	True	plovs
20	1614	truth_conditions	distinct	feathers	generic	19	purple	30	True	lorches
20	2095	truth_conditions	bare	scales	generic	20	red	90	True	blins
20	1295	truth_conditions	danger	stripes	generic	21	copper	10	True	mooks
20	1415	truth_conditions	bare	spots	generic	22	red	90	True	sapers
20	1647	truth_conditions	danger	ears	generic	23	orange	50	True	kazzes
20	1384	truth_conditions	danger	legs	generic	24	yellow	10	True	ludinos
20	1735	truth_conditions	distinct	scales	generic	25	yellow	10	True	dorbs
20	2063	truth_conditions	bare	ears	generic	26	blue	90	True	cheebas
20	2019	truth_conditions	distinct	stripes	generic	27	gold	30	True	daiths
20	1292	truth_conditions	distinct	ears	generic	28	pink	50	True	elleps
20	1960	truth_conditions	danger	scales	generic	29	blue	70	True	reesles
21	26671	truth_conditions	distinct	tails	generic	0	green	70	True	trufts
21	9064	truth_conditions	danger	feathers	generic	1	red	10	True	noobs
21	7699	truth_conditions	distinct	ears	generic	2	pink	50	True	elleps
21	9833	truth_conditions	danger	stripes	generic	3	copper	70	True	mooks
21	6587	truth_conditions	distinct	shells	generic	4	orange	10	True	luzaks
21	4178	truth_conditions	bare	shells	generic	5	purple	50	True	javs
21	5267	truth_conditions	bare	tails	generic	6	orange	30	True	zorbs
21	3314	truth_conditions	bare	legs	generic	7	yellow	10	True	ludinos
21	5785	truth_conditions	danger	legs	generic	8	pink	90	True	feps
21	8615	truth_conditions	danger	spots	generic	9	copper	50	True	glippets
21	4768	truth_conditions	distinct	feathers	generic	10	purple	10	True	lorches
21	5433	truth_conditions	distinct	teeth	generic	11	blue	90	True	thups
21	2969	truth_conditions	danger	tails	generic	12	purple	90	True	taifels
21	3696	truth_conditions	distinct	spots	generic	13	red	90	True	sapers
21	3467	truth_conditions	danger	teeth	generic	14	green	10	True	zoovs
21	4836	truth_conditions	bare	stripes	generic	15	silver	10	True	frams
21	3835	truth_conditions	bare	ears	generic	16	blue	70	True	cheebas
21	3462	truth_conditions	danger	fur	generic	17	yellow	30	True	ollers
21	3801	truth_conditions	distinct	legs	generic	18	silver	70	True	ackles
21	3617	truth_conditions	danger	shells	generic	19	green	90	True	moxes
21	5766	truth_conditions	distinct	stripes	generic	20	gold	70	True	daiths
21	5076	truth_conditions	distinct	scales	generic	21	blue	30	True	reesles
21	4221	truth_conditions	bare	teeth	generic	22	pink	50	True	krivels
21	4488	truth_conditions	bare	fur	generic	23	silver	90	True	morseths
21	11972	truth_conditions	danger	scales	generic	24	yellow	70	True	dorbs
21	4550	truth_conditions	bare	scales	generic	25	red	30	True	blins
21	6106	truth_conditions	danger	ears	generic	26	orange	30	True	kazzes
21	4684	truth_conditions	bare	feathers	generic	27	gold	50	True	plovs
21	4382	truth_conditions	bare	spots	generic	28	gold	50	True	stups
21	4952	truth_conditions	distinct	fur	generic	29	copper	30	True	kweps
22	8635	truth_conditions	bare	spots	generic	0	red	90	True	sapers
22	9417	truth_conditions	danger	ears	generic	1	blue	30	True	cheebas
22	4915	truth_conditions	distinct	fur	generic	2	copper	70	True	kweps
22	6836	truth_conditions	distinct	feathers	generic	3	gold	90	True	plovs
22	4692	truth_conditions	danger	tails	generic	4	orange	70	True	zorbs
22	5499	truth_conditions	danger	spots	generic	5	copper	30	True	glippets
22	5500	truth_conditions	danger	legs	generic	6	pink	50	True	feps
22	5267	truth_conditions	bare	fur	generic	7	silver	10	True	morseths
22	3303	truth_conditions	bare	teeth	generic	8	pink	90	True	krivels
22	4343	truth_conditions	distinct	legs	generic	9	silver	10	True	ackles
22	3499	truth_conditions	distinct	teeth	generic	10	green	30	True	zoovs
22	3905	truth_conditions	bare	feathers	generic	11	red	90	True	noobs
22	6401	truth_conditions	bare	legs	generic	12	yellow	10	True	ludinos
22	3878	truth_conditions	bare	scales	generic	13	blue	70	True	reesles
22	4214	truth_conditions	danger	shells	generic	14	green	50	True	moxes
22	2872	truth_conditions	distinct	scales	generic	15	yellow	70	True	dorbs
22	3724	truth_conditions	bare	stripes	generic	16	copper	70	True	mooks
22	3624	truth_conditions	bare	ears	generic	17	pink	30	True	elleps
22	5266	truth_conditions	danger	scales	generic	18	red	70	True	blins
22	2818	truth_conditions	danger	teeth	generic	19	blue	30	True	thups
22	2461	truth_conditions	bare	shells	generic	20	orange	10	True	luzaks
22	5955	truth_conditions	danger	stripes	generic	21	silver	90	True	frams
22	2978	truth_conditions	distinct	spots	generic	22	gold	10	True	stups
22	4395	truth_conditions	bare	tails	generic	23	green	50	True	trufts
22	4285	truth_conditions	danger	fur	generic	24	yellow	50	True	ollers
22	4787	truth_conditions	danger	feathers	generic	25	purple	50	True	lorches
22	3495	truth_conditions	distinct	ears	generic	26	orange	30	True	kazzes
22	4992	truth_conditions	distinct	tails	generic	27	purple	50	True	taifels
22	2903	truth_conditions	distinct	stripes	generic	28	gold	90	True	daiths
22	2480	truth_conditions	distinct	shells	generic	29	purple	10	True	javs
23	13714	truth_conditions	distinct	ears	generic	0	orange	30	True	kazzes
23	10924	truth_conditions	danger	spots	generic	1	red	10	True	sapers
23	4136	truth_conditions	bare	legs	generic	2	yellow	10	True	ludinos
23	4558	truth_conditions	distinct	spots	generic	3	copper	70	True	glippets
23	5465	truth_conditions	danger	tails	generic	4	purple	90	True	taifels
23	4609	truth_conditions	danger	stripes	generic	5	silver	10	True	frams
23	3066	truth_conditions	bare	feathers	generic	6	red	70	True	noobs
23	2684	truth_conditions	bare	spots	generic	7	gold	90	True	stups
23	3472	truth_conditions	bare	fur	generic	8	silver	10	True	morseths
23	4312	truth_conditions	danger	fur	generic	9	copper	90	True	kweps
23	2393	truth_conditions	bare	teeth	generic	10	blue	50	True	thups
23	2918	truth_conditions	bare	stripes	generic	11	gold	30	True	daiths
23	4512	truth_conditions	distinct	scales	generic	12	yellow	30	True	dorbs
23	4114	truth_conditions	danger	teeth	generic	13	pink	30	True	krivels
23	4869	truth_conditions	danger	ears	generic	14	pink	30	True	elleps
23	4056	truth_conditions	distinct	tails	generic	15	orange	50	True	zorbs
23	3601	truth_conditions	danger	scales	generic	16	blue	50	True	reesles
23	4115	truth_conditions	danger	shells	generic	17	orange	50	True	luzaks
23	3762	truth_conditions	distinct	teeth	generic	18	green	90	True	zoovs
23	3639	truth_conditions	distinct	legs	generic	19	pink	70	True	feps
23	3877	truth_conditions	danger	feathers	generic	20	gold	10	True	plovs
23	2664	truth_conditions	bare	ears	generic	21	blue	50	True	cheebas
23	5338	truth_conditions	distinct	stripes	generic	22	copper	30	True	mooks
23	3508	truth_conditions	danger	legs	generic	23	silver	70	True	ackles
23	3388	truth_conditions	distinct	shells	generic	24	purple	50	True	javs
23	3615	truth_conditions	distinct	feathers	generic	25	purple	70	True	lorches
23	4223	truth_conditions	bare	scales	generic	26	red	90	True	blins
23	3352	truth_conditions	distinct	fur	generic	27	yellow	70	True	ollers
23	2558	truth_conditions	bare	shells	generic	28	green	90	True	moxes
23	3405	truth_conditions	bare	tails	generic	29	green	10	True	trufts
24	24846	truth_conditions	distinct	ears	generic	0	orange	90	True	kazzes
24	10163	truth_conditions	distinct	spots	generic	1	gold	50	True	stups
24	6701	truth_conditions	bare	feathers	generic	2	gold	90	True	plovs
24	11875	truth_conditions	distinct	stripes	generic	3	copper	70	True	mooks
24	9293	truth_conditions	distinct	shells	generic	4	orange	50	True	luzaks
24	9180	truth_conditions	bare	ears	generic	5	pink	10	False	elleps
24	5143	truth_conditions	bare	fur	generic	6	silver	90	True	morseths
24	8843	truth_conditions	danger	scales	generic	7	yellow	30	False	dorbs
24	8369	truth_conditions	danger	legs	generic	8	yellow	10	False	ludinos
24	3742	truth_conditions	bare	stripes	generic	9	gold	50	True	daiths
24	6676	truth_conditions	danger	stripes	generic	10	silver	90	True	frams
24	4187	truth_conditions	danger	shells	generic	11	green	90	True	moxes
24	6805	truth_conditions	distinct	feathers	generic	12	red	70	True	noobs
24	5640	truth_conditions	bare	shells	generic	13	purple	70	True	javs
24	7526	truth_conditions	danger	fur	generic	14	yellow	30	False	ollers
24	4266	truth_conditions	danger	teeth	generic	15	pink	70	True	krivels
24	6746	truth_conditions	danger	tails	generic	16	green	50	True	trufts
24	3523	truth_conditions	distinct	tails	generic	17	purple	50	True	taifels
24	3956	truth_conditions	danger	ears	generic	18	blue	70	True	cheebas
24	3364	truth_conditions	bare	scales	generic	19	red	30	False	blins
24	4083	truth_conditions	bare	tails	generic	20	orange	30	False	zorbs
24	4051	truth_conditions	distinct	fur	generic	21	copper	10	False	kweps
24	3520	truth_conditions	distinct	teeth	generic	22	blue	30	False	thups
24	4699	truth_conditions	bare	legs	generic	23	silver	90	True	ackles
24	4363	truth_conditions	distinct	legs	generic	24	pink	10	False	feps
24	3876	truth_conditions	bare	spots	generic	25	red	30	False	sapers
24	7659	truth_conditions	danger	spots	generic	26	copper	50	True	glippets
24	7154	truth_conditions	distinct	scales	generic	27	blue	70	True	reesles
24	4367	truth_conditions	danger	feathers	generic	28	purple	10	False	lorches
24	3816	truth_conditions	bare	teeth	generic	29	green	10	False	zoovs
25	16291	truth_conditions	distinct	shells	generic	0	green	70	True	moxes
25	11822	truth_conditions	danger	spots	generic	1	red	30	True	sapers
25	9021	truth_conditions	danger	stripes	generic	2	copper	50	True	mooks
25	13474	truth_conditions	danger	shells	generic	3	orange	10	False	luzaks
25	5308	truth_conditions	bare	shells	generic	4	purple	10	True	javs
25	8542	truth_conditions	bare	teeth	generic	5	blue	70	True	thups
25	9606	truth_conditions	distinct	spots	generic	6	gold	30	True	stups
25	13275	truth_conditions	danger	tails	generic	7	green	50	False	trufts
25	3896	truth_conditions	bare	legs	generic	8	silver	10	True	ackles
25	6917	truth_conditions	distinct	teeth	generic	9	green	90	True	zoovs
25	8706	truth_conditions	danger	ears	generic	10	orange	30	False	kazzes
25	20978	truth_conditions	danger	teeth	generic	11	pink	90	True	krivels
25	7911	truth_conditions	distinct	stripes	generic	12	silver	90	True	frams
25	7957	truth_conditions	bare	feathers	generic	13	purple	30	True	lorches
25	8002	truth_conditions	distinct	tails	generic	14	purple	30	True	taifels
25	10510	truth_conditions	bare	ears	generic	15	blue	10	False	cheebas
25	4549	truth_conditions	bare	tails	generic	16	orange	10	True	zorbs
25	16803	truth_conditions	bare	spots	generic	17	copper	50	True	glippets
25	6472	truth_conditions	distinct	fur	generic	18	yellow	70	True	ollers
25	8828	truth_conditions	danger	scales	generic	19	blue	90	True	reesles
25	6717	truth_conditions	danger	legs	generic	20	yellow	30	True	ludinos
25	4038	truth_conditions	bare	stripes	generic	21	gold	70	True	daiths
25	14434	truth_conditions	distinct	ears	generic	22	pink	50	True	elleps
25	4606	truth_conditions	danger	fur	generic	23	silver	90	True	morseths
25	11809	truth_conditions	distinct	scales	generic	24	yellow	90	True	dorbs
25	5169	truth_conditions	distinct	feathers	generic	25	red	50	True	noobs
25	5202	truth_conditions	distinct	legs	generic	26	pink	10	False	feps
25	5076	truth_conditions	danger	feathers	generic	27	gold	70	True	plovs
25	5412	truth_conditions	bare	scales	generic	28	red	50	True	blins
25	3763	truth_conditions	bare	fur	generic	29	copper	70	True	kweps
26	15773	truth_conditions	bare	spots	generic	0	copper	10	True	glippets
26	21148	truth_conditions	danger	teeth	generic	1	pink	90	True	krivels
26	8005	truth_conditions	bare	shells	generic	2	green	30	True	moxes
26	11246	truth_conditions	distinct	ears	generic	3	blue	10	True	cheebas
26	17331	truth_conditions	distinct	tails	generic	4	purple	30	True	taifels
26	7073	truth_conditions	bare	teeth	generic	5	green	70	True	zoovs
26	6158	truth_conditions	bare	legs	generic	6	yellow	30	True	ludinos
26	13906	truth_conditions	danger	stripes	generic	7	gold	50	True	daiths
26	9667	truth_conditions	bare	tails	generic	8	orange	70	True	zorbs
26	9101	truth_conditions	danger	fur	generic	9	yellow	50	True	ollers
26	5365	truth_conditions	danger	feathers	generic	10	gold	30	True	plovs
26	18343	truth_conditions	distinct	spots	generic	11	gold	50	True	stups
26	5397	truth_conditions	bare	ears	generic	12	pink	90	True	elleps
26	2774	truth_conditions	distinct	scales	generic	13	yellow	10	True	dorbs
26	9909	truth_conditions	danger	ears	generic	14	orange	90	True	kazzes
26	20168	truth_conditions	distinct	shells	generic	15	purple	50	True	javs
26	12466	truth_conditions	distinct	fur	generic	16	silver	70	True	morseths
26	6007	truth_conditions	danger	shells	generic	17	orange	90	True	luzaks
26	6173	truth_conditions	bare	stripes	generic	18	copper	50	True	mooks
26	7072	truth_conditions	danger	spots	generic	19	red	10	True	sapers
26	5354	truth_conditions	bare	scales	generic	20	blue	10	True	reesles
26	9258	truth_conditions	distinct	feathers	generic	21	purple	50	True	lorches
26	3343	truth_conditions	bare	feathers	generic	22	red	70	True	noobs
26	9936	truth_conditions	distinct	teeth	generic	23	blue	30	True	thups
26	7055	truth_conditions	danger	tails	generic	24	green	10	True	trufts
26	8236	truth_conditions	distinct	legs	generic	25	silver	70	True	ackles
26	5415	truth_conditions	danger	scales	generic	26	red	90	True	blins
26	6267	truth_conditions	bare	fur	generic	27	copper	90	True	kweps
26	6707	truth_conditions	distinct	stripes	generic	28	silver	30	True	frams
26	14004	truth_conditions	danger	legs	generic	29	pink	70	True	feps
27	9629	truth_conditions	danger	feathers	generic	0	purple	10	True	lorches
27	6054	truth_conditions	danger	fur	generic	1	copper	50	True	kweps
27	4958	truth_conditions	distinct	fur	generic	2	silver	90	True	morseths
27	2787	truth_conditions	danger	shells	generic	3	green	50	True	moxes
27	3304	truth_conditions	distinct	ears	generic	4	pink	70	True	elleps
27	2577	truth_conditions	distinct	legs	generic	5	silver	30	False	ackles
27	4437	truth_conditions	distinct	tails	generic	6	purple	50	True	taifels
27	3164	truth_conditions	danger	tails	generic	7	orange	90	True	zorbs
27	2332	truth_conditions	bare	stripes	generic	8	copper	10	False	mooks
27	2369	truth_conditions	distinct	feathers	generic	9	red	90	True	noobs
27	1886	truth_conditions	danger	scales	generic	10	yellow	10	False	dorbs
27	1499	truth_conditions	distinct	teeth	generic	11	pink	10	False	krivels
27	1758	truth_conditions	danger	legs	generic	12	pink	70	True	feps
27	1759	truth_conditions	distinct	spots	generic	13	copper	30	False	glippets
27	1913	truth_conditions	bare	scales	generic	14	red	50	True	blins
27	1852	truth_conditions	danger	stripes	generic	15	silver	90	True	frams
27	1424	truth_conditions	distinct	scales	generic	16	blue	90	True	reesles
27	2331	truth_conditions	distinct	stripes	generic	17	gold	70	True	daiths
27	2619	truth_conditions	bare	shells	generic	18	purple	70	True	javs
27	3467	truth_conditions	danger	spots	generic	19	gold	10	False	stups
27	3357	truth_conditions	distinct	shells	generic	20	orange	50	True	luzaks
27	1931	truth_conditions	danger	ears	generic	21	orange	30	False	kazzes
27	1477	truth_conditions	bare	fur	generic	22	yellow	70	True	ollers
27	1655	truth_conditions	bare	tails	generic	23	green	30	False	trufts
27	1450	truth_conditions	bare	spots	generic	24	red	30	False	sapers
27	1333	truth_conditions	bare	ears	generic	25	blue	70	True	cheebas
27	2216	truth_conditions	bare	feathers	generic	26	gold	90	True	plovs
27	2097	truth_conditions	danger	teeth	generic	27	green	10	False	zoovs
27	1742	truth_conditions	bare	legs	generic	28	yellow	30	False	ludinos
27	1346	truth_conditions	bare	teeth	generic	29	blue	50	True	thups
28	18358	truth_conditions	danger	spots	generic	0	copper	30	True	glippets
28	18576	truth_conditions	distinct	ears	generic	1	blue	50	True	cheebas
28	9763	truth_conditions	bare	feathers	generic	2	gold	10	True	plovs
28	5996	truth_conditions	bare	ears	generic	3	pink	50	True	elleps
28	10618	truth_conditions	distinct	spots	generic	4	red	70	True	sapers
28	10332	truth_conditions	danger	ears	generic	5	orange	90	True	kazzes
28	5863	truth_conditions	bare	legs	generic	6	yellow	70	True	ludinos
28	5260	truth_conditions	bare	fur	generic	7	silver	10	True	morseths
28	10761	truth_conditions	danger	fur	generic	8	copper	50	True	kweps
28	10381	truth_conditions	danger	stripes	generic	9	copper	30	True	mooks
28	7368	truth_conditions	danger	feathers	generic	10	purple	30	True	lorches
28	6382	truth_conditions	danger	legs	generic	11	silver	90	True	ackles
28	4312	truth_conditions	bare	scales	generic	12	blue	30	True	reesles
28	6928	truth_conditions	distinct	feathers	generic	13	red	10	True	noobs
28	5747	truth_conditions	danger	teeth	generic	14	pink	90	True	krivels
28	7568	truth_conditions	distinct	stripes	generic	15	gold	50	True	daiths
28	6969	truth_conditions	danger	scales	generic	16	red	90	True	blins
28	3978	truth_conditions	bare	teeth	generic	17	green	10	True	zoovs
28	9350	truth_conditions	danger	shells	generic	18	purple	70	True	javs
28	6520	truth_conditions	distinct	tails	generic	19	green	70	True	trufts
28	6738	truth_conditions	distinct	scales	generic	20	yellow	30	True	dorbs
28	6249	truth_conditions	bare	stripes	generic	21	silver	50	True	frams
28	9717	truth_conditions	danger	tails	generic	22	orange	70	True	zorbs
28	5195	truth_conditions	distinct	fur	generic	23	yellow	50	True	ollers
28	5967	truth_conditions	distinct	teeth	generic	24	blue	30	True	thups
28	5905	truth_conditions	distinct	legs	generic	25	pink	10	True	feps
28	3426	truth_conditions	bare	tails	generic	26	purple	70	True	taifels
28	5387	truth_conditions	distinct	shells	generic	27	orange	90	True	luzaks
28	4125	truth_conditions	bare	spots	generic	28	gold	90	True	stups
28	2938	truth_conditions	bare	shells	generic	29	green	10	True	moxes
29	6781	truth_conditions	bare	spots	generic	0	gold	90	False	stups
29	3897	truth_conditions	bare	stripes	generic	1	silver	70	False	frams
29	4667	truth_conditions	distinct	shells	generic	2	orange	30	True	luzaks
29	2561	truth_conditions	bare	fur	generic	3	silver	10	True	morseths
29	2460	truth_conditions	distinct	stripes	generic	4	copper	50	False	mooks
29	1933	truth_conditions	distinct	ears	generic	5	blue	90	True	cheebas
29	1620	truth_conditions	bare	feathers	generic	6	gold	30	True	plovs
29	1665	truth_conditions	bare	teeth	generic	7	blue	30	False	thups
29	1863	truth_conditions	danger	shells	generic	8	purple	10	False	javs
29	1303	truth_conditions	danger	fur	generic	9	copper	50	True	kweps
29	4562	truth_conditions	distinct	tails	generic	10	green	70	True	trufts
29	2572	truth_conditions	danger	teeth	generic	11	pink	70	False	krivels
29	1765	truth_conditions	bare	scales	generic	12	blue	50	False	reesles
29	1556	truth_conditions	bare	tails	generic	13	purple	90	True	taifels
29	1119	truth_conditions	distinct	feathers	generic	14	purple	90	True	lorches
29	1073	truth_conditions	distinct	spots	generic	15	red	70	False	sapers
29	1167	truth_conditions	danger	ears	generic	16	orange	10	False	kazzes
29	922	truth_conditions	distinct	legs	generic	17	pink	50	True	feps
29	1074	truth_conditions	bare	ears	generic	18	pink	70	False	elleps
29	1216	truth_conditions	distinct	fur	generic	19	yellow	10	True	ollers
29	1634	truth_conditions	danger	scales	generic	20	yellow	30	False	dorbs
29	1364	truth_conditions	bare	legs	generic	21	silver	10	True	ackles
29	1191	truth_conditions	distinct	teeth	generic	22	green	90	False	zoovs
29	1123	truth_conditions	danger	spots	generic	23	copper	50	True	glippets
29	1055	truth_conditions	danger	tails	generic	24	orange	30	True	zorbs
29	1591	truth_conditions	bare	shells	generic	25	green	10	False	moxes
29	2656	truth_conditions	danger	legs	generic	26	yellow	70	False	ludinos
29	3036	truth_conditions	danger	stripes	generic	27	gold	30	False	daiths
29	1931	truth_conditions	danger	feathers	generic	28	red	90	True	noobs
29	1764	truth_conditions	distinct	scales	generic	29	red	50	True	blins
30	22142	truth_conditions	distinct	spots	generic	0	copper	30	True	glippets
30	5391	truth_conditions	bare	fur	generic	1	yellow	70	True	ollers
30	6063	truth_conditions	danger	scales	generic	2	red	90	True	blins
30	7207	truth_conditions	distinct	tails	generic	3	orange	30	True	zorbs
30	6478	truth_conditions	distinct	ears	generic	4	blue	90	True	cheebas
30	7115	truth_conditions	distinct	shells	generic	5	purple	90	True	javs
30	4635	truth_conditions	bare	shells	generic	6	orange	30	True	luzaks
30	4368	truth_conditions	bare	feathers	generic	7	purple	10	True	lorches
30	14765	truth_conditions	distinct	scales	generic	8	yellow	70	True	dorbs
30	7298	truth_conditions	danger	tails	generic	9	purple	90	True	taifels
30	10381	truth_conditions	danger	stripes	generic	10	copper	50	True	mooks
30	4303	truth_conditions	bare	teeth	generic	11	green	10	True	zoovs
30	12515	truth_conditions	danger	fur	generic	12	silver	70	True	morseths
30	3118	truth_conditions	danger	teeth	generic	13	pink	50	True	krivels
30	6163	truth_conditions	distinct	fur	generic	14	copper	30	True	kweps
30	1836	truth_conditions	danger	spots	generic	15	red	90	True	sapers
30	4150	truth_conditions	bare	ears	generic	16	orange	30	True	kazzes
30	2768	truth_conditions	bare	spots	generic	17	gold	10	False	stups
30	3016	truth_conditions	danger	feathers	generic	18	gold	10	False	plovs
30	1933	truth_conditions	danger	ears	generic	19	pink	30	False	elleps
30	2165	truth_conditions	danger	legs	generic	20	pink	70	True	feps
30	2201	truth_conditions	bare	stripes	generic	21	gold	10	False	daiths
30	1348	truth_conditions	bare	scales	generic	22	blue	70	True	reesles
30	2051	truth_conditions	distinct	feathers	generic	23	red	90	True	noobs
30	1751	truth_conditions	bare	legs	generic	24	yellow	50	True	ludinos
30	1733	truth_conditions	distinct	teeth	generic	25	blue	50	True	thups
30	1250	truth_conditions	danger	shells	generic	26	green	70	True	moxes
30	1682	truth_conditions	distinct	stripes	generic	27	silver	10	False	frams
30	1536	truth_conditions	bare	tails	generic	28	green	50	True	trufts
30	1597	truth_conditions	distinct	legs	generic	29	silver	50	True	ackles
31	7145	truth_conditions	bare	tails	generic	0	orange	50	True	zorbs
31	13000	truth_conditions	danger	teeth	generic	1	blue	10	False	thups
31	8383	truth_conditions	danger	fur	generic	2	silver	10	False	morseths
31	8111	truth_conditions	danger	ears	generic	3	blue	90	True	cheebas
31	4061	truth_conditions	bare	legs	generic	4	silver	10	False	ackles
31	7939	truth_conditions	danger	legs	generic	5	yellow	30	False	ludinos
31	8773	truth_conditions	distinct	teeth	generic	6	pink	10	False	krivels
31	2927	truth_conditions	bare	stripes	generic	7	gold	90	True	daiths
31	7386	truth_conditions	bare	feathers	generic	8	gold	30	False	plovs
31	6969	truth_conditions	distinct	shells	generic	9	green	30	False	moxes
31	3586	truth_conditions	distinct	legs	generic	10	pink	70	True	feps
31	2976	truth_conditions	bare	shells	generic	11	purple	70	True	javs
31	6775	truth_conditions	distinct	stripes	generic	12	silver	50	True	frams
31	4925	truth_conditions	danger	shells	generic	13	orange	50	True	luzaks
31	3673	truth_conditions	bare	teeth	generic	14	green	50	True	zoovs
31	5905	truth_conditions	danger	stripes	generic	15	copper	70	True	mooks
31	17749	truth_conditions	danger	spots	generic	16	gold	90	True	stups
31	6524	truth_conditions	distinct	scales	generic	17	yellow	30	False	dorbs
31	4400	truth_conditions	bare	spots	generic	18	red	30	False	sapers
31	10770	truth_conditions	distinct	ears	generic	19	orange	50	True	kazzes
31	3858	truth_conditions	distinct	tails	generic	20	green	90	True	trufts
31	4129	truth_conditions	bare	fur	generic	21	copper	30	False	kweps
31	13069	truth_conditions	distinct	feathers	generic	22	purple	70	True	lorches
31	7107	truth_conditions	danger	tails	generic	23	purple	90	True	taifels
31	11942	truth_conditions	danger	scales	generic	24	red	70	True	blins
31	10520	truth_conditions	distinct	spots	generic	25	copper	50	True	glippets
31	3277	truth_conditions	bare	ears	generic	26	pink	90	True	elleps
31	4964	truth_conditions	distinct	fur	generic	27	yellow	10	False	ollers
31	6263	truth_conditions	bare	scales	generic	28	blue	70	True	reesles
31	7815	truth_conditions	danger	feathers	generic	29	red	10	False	noobs
32	18665	truth_conditions	danger	spots	generic	0	copper	30	True	glippets
32	11932	truth_conditions	danger	shells	generic	1	green	90	True	moxes
32	9075	truth_conditions	danger	tails	generic	2	green	30	True	trufts
32	8595	truth_conditions	distinct	shells	generic	3	orange	10	True	luzaks
32	5055	truth_conditions	distinct	feathers	generic	4	gold	30	True	plovs
32	7280	truth_conditions	danger	stripes	generic	5	gold	90	True	daiths
32	5650	truth_conditions	bare	legs	generic	6	pink	10	True	feps
32	12890	truth_conditions	distinct	stripes	generic	7	silver	50	True	frams
32	4189	truth_conditions	bare	ears	generic	8	orange	30	True	kazzes
32	21728	truth_conditions	distinct	scales	generic	9	blue	50	True	reesles
32	11510	truth_conditions	danger	fur	generic	10	silver	70	True	morseths
32	4249	truth_conditions	bare	shells	generic	11	purple	90	True	javs
32	6978	truth_conditions	danger	teeth	generic	12	green	70	True	zoovs
32	5164	truth_conditions	bare	tails	generic	13	orange	50	True	zorbs
32	5546	truth_conditions	distinct	tails	generic	14	purple	90	True	taifels
32	20319	truth_conditions	distinct	spots	generic	15	red	70	True	sapers
32	9220	truth_conditions	distinct	legs	generic	16	silver	30	True	ackles
32	6798	truth_conditions	danger	scales	generic	17	yellow	70	True	dorbs
32	4578	truth_conditions	bare	fur	generic	18	yellow	10	True	ollers
32	2828	truth_conditions	bare	spots	generic	19	gold	90	True	stups
32	6282	truth_conditions	danger	legs	generic	20	yellow	10	True	ludinos
32	3882	truth_conditions	distinct	fur	generic	21	copper	10	True	kweps
32	2602	truth_conditions	bare	feathers	generic	22	purple	10	True	lorches
32	2804	truth_conditions	bare	stripes	generic	23	copper	90	True	mooks
32	2852	truth_conditions	bare	scales	generic	24	red	70	True	blins
32	3836	truth_conditions	danger	feathers	generic	25	red	50	True	noobs
32	3618	truth_conditions	distinct	teeth	generic	26	pink	50	True	krivels
32	7898	truth_conditions	danger	ears	generic	27	blue	30	True	cheebas
32	3532	truth_conditions	bare	teeth	generic	28	blue	70	True	thups
32	2670	truth_conditions	distinct	ears	generic	29	pink	50	True	elleps
33	11816	truth_conditions	distinct	spots	generic	0	red	90	True	sapers
33	4164	truth_conditions	danger	teeth	generic	1	green	90	True	zoovs
33	28807	truth_conditions	danger	ears	generic	2	orange	50	False	kazzes
33	4003	truth_conditions	distinct	ears	generic	3	pink	50	False	elleps
33	3284	truth_conditions	bare	fur	generic	4	silver	30	False	morseths
33	2295	truth_conditions	distinct	shells	generic	5	orange	50	False	luzaks
33	2403	truth_conditions	bare	teeth	generic	6	pink	70	True	krivels
33	1767	truth_conditions	distinct	stripes	generic	7	copper	30	False	mooks
33	1947	truth_conditions	distinct	teeth	generic	8	blue	30	False	thups
33	2070	truth_conditions	distinct	feathers	generic	9	gold	70	True	plovs
33	2222	truth_conditions	bare	ears	generic	10	blue	10	False	cheebas
33	1914	truth_conditions	bare	stripes	generic	11	silver	90	True	frams
33	4216	truth_conditions	danger	stripes	generic	12	gold	90	True	daiths
33	2530	truth_conditions	distinct	scales	generic	13	blue	10	False	reesles
33	2091	truth_conditions	danger	fur	generic	14	yellow	30	False	ollers
33	2747	truth_conditions	danger	shells	generic	15	purple	70	True	javs
33	5644	truth_conditions	bare	legs	generic	16	pink	50	False	feps
33	2076	truth_conditions	bare	spots	generic	17	gold	10	False	stups
33	4193	truth_conditions	bare	tails	generic	18	orange	50	False	zorbs
33	4173	truth_conditions	bare	shells	generic	19	green	30	False	moxes
33	2803	truth_conditions	bare	feathers	generic	20	red	70	True	noobs
33	2029	truth_conditions	danger	spots	generic	21	copper	70	True	glippets
33	2331	truth_conditions	distinct	tails	generic	22	green	30	False	trufts
33	1816	truth_conditions	danger	legs	generic	23	silver	10	False	ackles
33	3772	truth_conditions	bare	scales	generic	24	red	50	False	blins
33	4383	truth_conditions	danger	tails	generic	25	purple	70	True	taifels
33	2017	truth_conditions	danger	feathers	generic	26	purple	90	True	lorches
33	1918	truth_conditions	danger	scales	generic	27	yellow	10	False	dorbs
33	1739	truth_conditions	distinct	fur	generic	28	copper	90	True	kweps
33	1900	truth_conditions	distinct	legs	generic	29	yellow	10	False	ludinos
34	13604	truth_conditions	distinct	fur	generic	0	silver	90	True	morseths
34	7523	truth_conditions	bare	legs	generic	1	pink	50	False	feps
34	7882	truth_conditions	danger	legs	generic	2	yellow	50	True	ludinos
34	7527	truth_conditions	danger	stripes	generic	3	gold	70	True	daiths
34	5119	truth_conditions	bare	ears	generic	4	pink	90	True	elleps
34	7899	truth_conditions	bare	feathers	generic	5	purple	10	False	lorches
34	10543	truth_conditions	distinct	spots	generic	6	copper	50	False	glippets
34	6112	truth_conditions	distinct	tails	generic	7	orange	70	True	zorbs
34	5724	truth_conditions	distinct	shells	generic	8	orange	90	True	luzaks
34	6034	truth_conditions	bare	tails	generic	9	green	50	False	trufts
34	7541	truth_conditions	danger	shells	generic	10	purple	90	True	javs
34	5026	truth_conditions	bare	shells	generic	11	green	30	False	moxes
34	5354	truth_conditions	bare	fur	generic	12	copper	70	True	kweps
34	5637	truth_conditions	bare	spots	generic	13	red	30	False	sapers
34	6947	truth_conditions	distinct	feathers	generic	14	gold	10	False	plovs
34	7488	truth_conditions	danger	teeth	generic	15	blue	10	True	thups
34	5310	truth_conditions	bare	scales	generic	16	blue	30	False	reesles
34	5642	truth_conditions	danger	spots	generic	17	gold	70	True	stups
34	52119	truth_conditions	bare	stripes	generic	18	copper	50	False	mooks
34	6063	truth_conditions	danger	tails	generic	19	purple	70	True	taifels
34	4347	truth_conditions	bare	teeth	generic	20	pink	10	False	krivels
34	5482	truth_conditions	danger	feathers	generic	21	red	10	True	noobs
34	6602	truth_conditions	distinct	teeth	generic	22	green	10	False	zoovs
34	6619	truth_conditions	distinct	ears	generic	23	blue	90	True	cheebas
34	6722	truth_conditions	distinct	scales	generic	24	yellow	90	True	dorbs
34	5702	truth_conditions	danger	ears	generic	25	orange	30	True	kazzes
34	17268	truth_conditions	distinct	legs	generic	26	silver	50	False	ackles
34	26833	truth_conditions	danger	fur	generic	27	yellow	70	True	ollers
34	4378	truth_conditions	danger	scales	generic	28	red	30	True	blins
34	7413	truth_conditions	distinct	stripes	generic	29	silver	30	False	frams
35	6660	truth_conditions	danger	teeth	generic	0	blue	90	True	thups
35	3069	truth_conditions	bare	tails	generic	1	green	50	True	trufts
35	7407	truth_conditions	distinct	stripes	generic	2	silver	30	True	frams
35	2662	truth_conditions	distinct	legs	generic	3	pink	10	False	feps
35	2157	truth_conditions	distinct	spots	generic	4	gold	50	True	stups
35	1618	truth_conditions	danger	legs	generic	5	yellow	90	True	ludinos
35	3158	truth_conditions	bare	stripes	generic	6	copper	50	True	mooks
35	2218	truth_conditions	distinct	tails	generic	7	purple	50	True	taifels
35	2096	truth_conditions	danger	fur	generic	8	copper	30	True	kweps
35	2674	truth_conditions	bare	fur	generic	9	yellow	90	True	ollers
35	4286	truth_conditions	distinct	scales	generic	10	blue	10	False	reesles
35	4542	truth_conditions	bare	legs	generic	11	silver	30	True	ackles
35	3176	truth_conditions	distinct	fur	generic	12	silver	70	True	morseths
35	2183	truth_conditions	bare	teeth	generic	13	green	70	True	zoovs
35	2875	truth_conditions	danger	feathers	generic	14	gold	30	True	plovs
35	1870	truth_conditions	distinct	teeth	generic	15	pink	70	True	krivels
35	3398	truth_conditions	bare	feathers	generic	16	red	70	True	noobs
35	2816	truth_conditions	danger	tails	generic	17	orange	30	True	zorbs
35	3008	truth_conditions	danger	shells	generic	18	purple	10	False	javs
35	3109	truth_conditions	distinct	feathers	generic	19	purple	10	False	lorches
35	2815	truth_conditions	bare	ears	generic	20	pink	10	False	elleps
35	3026	truth_conditions	danger	ears	generic	21	orange	70	True	kazzes
35	3339	truth_conditions	danger	stripes	generic	22	gold	50	True	daiths
35	2189	truth_conditions	danger	scales	generic	23	yellow	90	True	dorbs
35	2748	truth_conditions	distinct	ears	generic	24	blue	10	False	cheebas
35	1717	truth_conditions	bare	spots	generic	25	red	90	True	sapers
35	1464	truth_conditions	bare	scales	generic	26	red	50	True	blins
35	1640	truth_conditions	bare	shells	generic	27	orange	70	True	luzaks
35	2284	truth_conditions	danger	spots	generic	28	copper	90	True	glippets
35	2373	truth_conditions	distinct	shells	generic	29	green	30	True	moxes
36	6003	truth_conditions	bare	spots	generic	0	copper	50	True	glippets
36	9580	truth_conditions	danger	fur	generic	1	yellow	90	True	ollers
36	4311	truth_conditions	danger	feathers	generic	2	gold	30	True	plovs
36	1728	truth_conditions	distinct	spots	generic	3	red	70	True	sapers
36	1497	truth_conditions	danger	teeth	generic	4	green	50	True	zoovs
36	2800	truth_conditions	bare	legs	generic	5	yellow	50	True	ludinos
36	2087	truth_conditions	bare	fur	generic	6	copper	90	True	kweps
36	2007	truth_conditions	danger	shells	generic	7	orange	50	True	luzaks
36	1432	truth_conditions	distinct	scales	generic	8	blue	90	True	reesles
36	1576	truth_conditions	bare	tails	generic	9	purple	70	True	taifels
36	3296	truth_conditions	distinct	teeth	generic	10	blue	10	False	thups
36	2736	truth_conditions	distinct	ears	generic	11	pink	30	True	elleps
36	1857	truth_conditions	bare	ears	generic	12	blue	10	False	cheebas
36	1592	truth_conditions	danger	stripes	generic	13	gold	70	True	daiths
36	2224	truth_conditions	bare	stripes	generic	14	copper	10	False	mooks
36	1440	truth_conditions	bare	teeth	generic	15	pink	90	True	krivels
36	1471	truth_conditions	bare	shells	generic	16	green	30	True	moxes
36	1248	truth_conditions	bare	scales	generic	17	yellow	70	True	dorbs
36	1480	truth_conditions	danger	spots	generic	18	gold	70	True	stups
36	2415	truth_conditions	distinct	shells	generic	19	purple	30	True	javs
36	1832	truth_conditions	distinct	feathers	generic	20	red	50	True	noobs
36	2320	truth_conditions	danger	ears	generic	21	orange	50	True	kazzes
36	2401	truth_conditions	distinct	legs	generic	22	silver	10	False	ackles
36	2255	truth_conditions	bare	feathers	generic	23	purple	70	True	lorches
36	1743	truth_conditions	distinct	fur	generic	24	silver	90	True	morseths
36	2567	truth_conditions	danger	tails	generic	25	orange	10	False	zorbs
36	1727	truth_conditions	distinct	stripes	generic	26	silver	90	True	frams
36	1857	truth_conditions	distinct	tails	generic	27	green	30	True	trufts
36	2399	truth_conditions	danger	legs	generic	28	pink	10	False	feps
36	2312	truth_conditions	danger	scales	generic	29	red	30	True	blins
37	3188	truth_conditions	bare	fur	generic	0	copper	50	False	kweps
37	1829	truth_conditions	bare	feathers	generic	1	gold	30	False	plovs
37	1364	truth_conditions	bare	ears	generic	2	pink	10	False	elleps
37	1956	truth_conditions	danger	scales	generic	3	red	90	True	blins
37	1584	truth_conditions	distinct	fur	generic	4	yellow	90	True	ollers
37	2348	truth_conditions	danger	spots	generic	5	copper	10	False	glippets
37	3037	truth_conditions	distinct	tails	generic	6	green	70	True	trufts
37	1360	truth_conditions	distinct	teeth	generic	7	blue	90	True	thups
37	1607	truth_conditions	danger	stripes	generic	8	silver	10	False	frams
37	1692	truth_conditions	bare	scales	generic	9	yellow	70	True	dorbs
37	1788	truth_conditions	danger	feathers	generic	10	purple	30	False	lorches
37	2603	truth_conditions	danger	ears	generic	11	orange	30	False	kazzes
37	1919	truth_conditions	bare	legs	generic	12	pink	90	True	feps
37	1656	truth_conditions	distinct	stripes	generic	13	copper	30	False	mooks
37	1647	truth_conditions	bare	teeth	generic	14	green	90	True	zoovs
37	1517	truth_conditions	bare	stripes	generic	15	gold	70	True	daiths
37	2123	truth_conditions	danger	legs	generic	16	silver	70	True	ackles
37	2126	truth_conditions	distinct	spots	generic	17	red	50	False	sapers
37	1504	truth_conditions	bare	spots	generic	18	gold	50	False	stups
37	1886	truth_conditions	bare	shells	generic	19	orange	10	False	luzaks
37	1776	truth_conditions	danger	fur	generic	20	silver	90	True	morseths
37	1777	truth_conditions	danger	tails	generic	21	orange	10	False	zorbs
37	1596	truth_conditions	distinct	legs	generic	22	yellow	50	False	ludinos
37	8449	truth_conditions	danger	teeth	generic	23	pink	50	False	krivels
37	1868	truth_conditions	distinct	scales	generic	24	blue	50	False	reesles
37	1759	truth_conditions	distinct	feathers	generic	25	red	30	False	noobs
37	1409	truth_conditions	danger	shells	generic	26	green	30	False	moxes
37	1318	truth_conditions	distinct	shells	generic	27	purple	10	False	javs
37	1406	truth_conditions	distinct	ears	generic	28	blue	70	True	cheebas
37	1992	truth_conditions	bare	tails	generic	29	purple	70	True	taifels
38	10243	truth_conditions	danger	spots	generic	0	gold	30	True	stups
38	7484	truth_conditions	distinct	ears	generic	1	pink	10	True	elleps
38	5103	truth_conditions	danger	stripes	generic	2	gold	50	True	daiths
38	2105	truth_conditions	bare	teeth	generic	3	green	70	True	zoovs
38	2447	truth_conditions	bare	spots	generic	4	red	50	True	sapers
38	5999	truth_conditions	distinct	shells	generic	5	orange	70	True	luzaks
38	2224	truth_conditions	danger	teeth	generic	6	pink	70	True	krivels
38	2288	truth_conditions	bare	fur	generic	7	copper	90	True	kweps
38	2568	truth_conditions	bare	tails	generic	8	purple	50	True	taifels
38	2183	truth_conditions	danger	legs	generic	9	yellow	90	True	ludinos
38	4293	truth_conditions	distinct	teeth	generic	10	blue	10	False	thups
38	4339	truth_conditions	distinct	fur	generic	11	silver	10	False	morseths
38	1488	truth_conditions	danger	scales	generic	12	yellow	90	True	dorbs
38	1512	truth_conditions	bare	legs	generic	13	pink	50	True	feps
38	1617	truth_conditions	danger	ears	generic	14	orange	30	False	kazzes
38	1855	truth_conditions	danger	feathers	generic	15	red	70	True	noobs
38	2096	truth_conditions	danger	fur	generic	16	yellow	30	False	ollers
38	1568	truth_conditions	distinct	legs	generic	17	silver	30	False	ackles
38	1561	truth_conditions	bare	shells	generic	18	green	90	True	moxes
38	2559	truth_conditions	danger	shells	generic	19	purple	50	True	javs
38	2048	truth_conditions	distinct	scales	generic	20	blue	90	True	reesles
38	1672	truth_conditions	bare	ears	generic	21	blue	30	False	cheebas
38	1872	truth_conditions	distinct	feathers	generic	22	purple	10	False	lorches
38	1920	truth_conditions	distinct	spots	generic	23	copper	50	True	glippets
38	1616	truth_conditions	bare	scales	generic	24	red	30	False	blins
38	1888	truth_conditions	distinct	stripes	generic	25	copper	10	False	mooks
38	1256	truth_conditions	bare	feathers	generic	26	gold	90	True	plovs
38	2575	truth_conditions	bare	stripes	generic	27	silver	70	True	frams
38	2160	truth_conditions	danger	tails	generic	28	green	10	False	trufts
38	1352	truth_conditions	distinct	tails	generic	29	orange	70	True	zorbs
39	14573	truth_conditions	distinct	ears	generic	0	pink	50	False	elleps
39	8338	truth_conditions	bare	scales	generic	1	blue	70	False	reesles
39	100486	truth_conditions	danger	teeth	generic	2	pink	50	False	krivels
39	5435	truth_conditions	bare	spots	generic	3	red	10	False	sapers
39	12742	truth_conditions	distinct	shells	generic	4	green	50	True	moxes
39	6550	truth_conditions	distinct	fur	generic	5	copper	70	True	kweps
39	2656	truth_conditions	bare	teeth	generic	6	blue	90	True	thups
39	6455	truth_conditions	distinct	tails	generic	7	orange	90	True	zorbs
39	2882	truth_conditions	bare	shells	generic	8	purple	10	False	javs
39	5675	truth_conditions	bare	feathers	generic	9	purple	30	False	lorches
39	3766	truth_conditions	bare	legs	generic	10	pink	30	False	feps
39	2895	truth_conditions	bare	stripes	generic	11	copper	90	True	mooks
39	2110	truth_conditions	bare	fur	generic	12	silver	30	False	morseths
39	8157	truth_conditions	danger	spots	generic	13	gold	10	False	stups
39	4150	truth_conditions	distinct	stripes	generic	14	gold	70	True	daiths
39	5045	truth_conditions	danger	tails	generic	15	green	30	False	trufts
39	9392	truth_conditions	distinct	scales	generic	16	yellow	50	False	dorbs
39	8224	truth_conditions	danger	feathers	generic	17	gold	50	False	plovs
39	2393	truth_conditions	danger	shells	generic	18	orange	10	False	luzaks
39	2183	truth_conditions	danger	fur	generic	19	yellow	30	False	ollers
39	8131	truth_conditions	danger	stripes	generic	20	silver	50	False	frams
39	2576	truth_conditions	danger	scales	generic	21	red	90	True	blins
39	2972	truth_conditions	distinct	spots	generic	22	copper	70	True	glippets
39	3998	truth_conditions	bare	tails	generic	23	purple	70	False	taifels
39	3110	truth_conditions	bare	ears	generic	24	blue	10	False	cheebas
39	27766	truth_conditions	danger	legs	generic	25	yellow	10	False	ludinos
39	3245	truth_conditions	distinct	legs	generic	26	silver	90	True	ackles
39	2167	truth_conditions	distinct	teeth	generic	27	green	30	False	zoovs
39	1782	truth_conditions	distinct	feathers	generic	28	red	90	True	noobs
39	3894	truth_conditions	danger	ears	generic	29	orange	70	True	kazzes