"","workerid","rt","trial_type","stim_type","stim_part","stim_determiner","trialNum","stim_color","stim_prevalence","response","stim_category"
"1",0,3483,"truth_conditions","danger","tails","generic",0,"green",10,"False","trufts"
"2",0,4043,"truth_conditions","bare","shells","generic",1,"green",30,"True","moxes"
"3",0,3110,"truth_conditions","distinct","legs","generic",2,"silver",10,"False","ackles"
"4",0,3231,"truth_conditions","danger","scales","generic",3,"red",70,"True","blins"
"5",0,1505,"truth_conditions","distinct","scales","generic",4,"blue",70,"True","reesles"
"6",0,1863,"truth_conditions","bare","tails","generic",5,"orange",50,"True","zorbs"
"7",0,2608,"truth_conditions","bare","scales","generic",6,"yellow",30,"False","dorbs"
"8",0,2048,"truth_conditions","distinct","tails","generic",7,"purple",30,"False","taifels"
"9",0,1967,"truth_conditions","bare","feathers","generic",8,"red",50,"True","noobs"
"10",0,1138,"truth_conditions","distinct","ears","generic",9,"pink",90,"True","elleps"
"11",0,1184,"truth_conditions","bare","teeth","generic",10,"pink",50,"True","krivels"
"12",0,966,"truth_conditions","bare","stripes","generic",11,"gold",90,"True","daiths"
"13",0,1801,"truth_conditions","danger","teeth","generic",12,"green",50,"True","zoovs"
"14",0,1583,"truth_conditions","danger","shells","generic",13,"orange",90,"True","luzaks"
"15",0,1946,"truth_conditions","danger","legs","generic",14,"yellow",10,"False","ludinos"
"16",0,1093,"truth_conditions","distinct","teeth","generic",15,"blue",70,"True","thups"
"17",0,1486,"truth_conditions","distinct","spots","generic",16,"copper",10,"False","glippets"
"18",0,1514,"truth_conditions","distinct","stripes","generic",17,"copper",30,"False","mooks"
"19",0,2022,"truth_conditions","bare","legs","generic",18,"pink",50,"True","feps"
"20",0,2217,"truth_conditions","danger","feathers","generic",19,"gold",70,"True","plovs"
"21",0,1392,"truth_conditions","bare","spots","generic",20,"red",10,"True","sapers"
"22",0,1681,"truth_conditions","bare","ears","generic",21,"orange",30,"False","kazzes"
"23",0,1446,"truth_conditions","danger","ears","generic",22,"blue",30,"False","cheebas"
"24",0,1600,"truth_conditions","danger","spots","generic",23,"gold",70,"True","stups"
"25",0,1057,"truth_conditions","distinct","feathers","generic",24,"purple",70,"True","lorches"
"26",0,1328,"truth_conditions","distinct","fur","generic",25,"silver",90,"True","morseths"
"27",0,1367,"truth_conditions","danger","fur","generic",26,"copper",90,"True","kweps"
"28",0,1864,"truth_conditions","danger","stripes","generic",27,"silver",90,"True","frams"
"29",0,2336,"truth_conditions","distinct","shells","generic",28,"purple",10,"False","javs"
"30",0,1239,"truth_conditions","bare","fur","generic",29,"yellow",50,"True","ollers"
"31",1,10759,"truth_conditions","distinct","legs","generic",0,"silver",50,"False","ackles"
"32",1,4744,"truth_conditions","bare","ears","generic",1,"blue",50,"False","cheebas"
"33",1,6819,"truth_conditions","distinct","stripes","generic",2,"copper",30,"False","mooks"
"34",1,5622,"truth_conditions","distinct","tails","generic",3,"purple",90,"False","taifels"
"35",1,4048,"truth_conditions","danger","scales","generic",4,"red",70,"False","blins"
"36",1,3244,"truth_conditions","distinct","ears","generic",5,"orange",10,"False","kazzes"
"37",1,6612,"truth_conditions","distinct","teeth","generic",6,"green",50,"False","zoovs"
"38",1,2294,"truth_conditions","danger","tails","generic",7,"orange",90,"False","zorbs"
"39",1,2541,"truth_conditions","distinct","spots","generic",8,"red",70,"False","sapers"
"40",1,2200,"truth_conditions","distinct","feathers","generic",9,"purple",30,"False","lorches"
"41",1,2451,"truth_conditions","bare","tails","generic",10,"green",30,"False","trufts"
"42",1,1928,"truth_conditions","danger","fur","generic",11,"copper",30,"False","kweps"
"43",1,1591,"truth_conditions","bare","stripes","generic",12,"gold",10,"False","daiths"
"44",1,2005,"truth_conditions","bare","spots","generic",13,"gold",70,"False","stups"
"45",1,3168,"truth_conditions","bare","feathers","generic",14,"red",90,"False","noobs"
"46",1,3529,"truth_conditions","danger","legs","generic",15,"pink",50,"False","feps"
"47",1,1826,"truth_conditions","bare","teeth","generic",16,"blue",70,"False","thups"
"48",1,2219,"truth_conditions","bare","fur","generic",17,"silver",30,"False","morseths"
"49",1,2459,"truth_conditions","danger","stripes","generic",18,"silver",90,"False","frams"
"50",1,2001,"truth_conditions","distinct","scales","generic",19,"yellow",10,"False","dorbs"
"51",1,2160,"truth_conditions","bare","legs","generic",20,"yellow",70,"False","ludinos"
"52",1,6033,"truth_conditions","danger","feathers","generic",21,"gold",30,"False","plovs"
"53",1,2478,"truth_conditions","danger","shells","generic",22,"green",50,"False","moxes"
"54",1,2349,"truth_conditions","danger","spots","generic",23,"copper",90,"False","glippets"
"55",1,1676,"truth_conditions","distinct","shells","generic",24,"orange",70,"False","luzaks"
"56",1,1613,"truth_conditions","bare","scales","generic",25,"blue",90,"False","reesles"
"57",1,1585,"truth_conditions","danger","ears","generic",26,"pink",10,"False","elleps"
"58",1,1771,"truth_conditions","bare","shells","generic",27,"purple",50,"False","javs"
"59",1,1482,"truth_conditions","distinct","fur","generic",28,"yellow",10,"False","ollers"
"60",1,1747,"truth_conditions","danger","teeth","generic",29,"pink",10,"False","krivels"
"61",2,8585,"truth_conditions","danger","scales","generic",0,"blue",30,"True","reesles"
"62",2,6881,"truth_conditions","danger","shells","generic",1,"green",70,"True","moxes"
"63",2,5108,"truth_conditions","bare","shells","generic",2,"orange",10,"True","luzaks"
"64",2,4012,"truth_conditions","distinct","ears","generic",3,"blue",70,"True","cheebas"
"65",2,3278,"truth_conditions","bare","feathers","generic",4,"gold",50,"True","plovs"
"66",2,14600,"truth_conditions","bare","spots","generic",5,"red",30,"True","sapers"
"67",2,3145,"truth_conditions","distinct","shells","generic",6,"purple",30,"True","javs"
"68",2,4314,"truth_conditions","danger","legs","generic",7,"pink",10,"True","feps"
"69",2,5836,"truth_conditions","danger","feathers","generic",8,"red",10,"True","noobs"
"70",2,3942,"truth_conditions","danger","tails","generic",9,"green",50,"True","trufts"
"71",2,4361,"truth_conditions","bare","scales","generic",10,"red",50,"True","blins"
"72",2,2459,"truth_conditions","bare","ears","generic",11,"pink",70,"True","elleps"
"73",2,2380,"truth_conditions","bare","tails","generic",12,"orange",50,"True","zorbs"
"74",2,6179,"truth_conditions","distinct","teeth","generic",13,"blue",90,"True","thups"
"75",2,46831,"truth_conditions","danger","ears","generic",14,"orange",70,"True","kazzes"
"76",2,2627,"truth_conditions","bare","fur","generic",15,"silver",30,"True","morseths"
"77",2,4069,"truth_conditions","distinct","fur","generic",16,"yellow",50,"True","ollers"
"78",2,2363,"truth_conditions","danger","fur","generic",17,"copper",70,"True","kweps"
"79",2,2676,"truth_conditions","danger","spots","generic",18,"copper",10,"True","glippets"
"80",2,2792,"truth_conditions","bare","legs","generic",19,"yellow",90,"True","ludinos"
"81",2,2378,"truth_conditions","bare","teeth","generic",20,"green",10,"True","zoovs"
"82",2,1755,"truth_conditions","bare","stripes","generic",21,"gold",10,"True","daiths"
"83",2,3184,"truth_conditions","danger","stripes","generic",22,"copper",90,"True","mooks"
"84",2,3269,"truth_conditions","danger","teeth","generic",23,"pink",30,"True","krivels"
"85",2,1200,"truth_conditions","distinct","legs","generic",24,"silver",70,"True","ackles"
"86",2,789,"truth_conditions","distinct","spots","generic",25,"gold",30,"True","stups"
"87",2,755,"truth_conditions","distinct","scales","generic",26,"yellow",50,"True","dorbs"
"88",2,2039,"truth_conditions","distinct","feathers","generic",27,"purple",90,"True","lorches"
"89",2,1450,"truth_conditions","distinct","tails","generic",28,"purple",90,"True","taifels"
"90",2,1539,"truth_conditions","distinct","stripes","generic",29,"silver",90,"True","frams"
"91",3,8213,"truth_conditions","danger","fur","generic",0,"copper",30,"True","kweps"
"92",3,5118,"truth_conditions","bare","fur","generic",1,"silver",90,"False","morseths"
"93",3,7085,"truth_conditions","danger","scales","generic",2,"yellow",50,"True","dorbs"
"94",3,7652,"truth_conditions","danger","legs","generic",3,"yellow",10,"False","ludinos"
"95",3,6026,"truth_conditions","distinct","stripes","generic",4,"copper",30,"False","mooks"
"96",3,3335,"truth_conditions","distinct","tails","generic",5,"purple",90,"True","taifels"
"97",3,4916,"truth_conditions","distinct","teeth","generic",6,"green",70,"False","zoovs"
"98",3,5489,"truth_conditions","bare","tails","generic",7,"orange",50,"False","zorbs"
"99",3,3078,"truth_conditions","bare","ears","generic",8,"blue",90,"True","cheebas"
"100",3,5815,"truth_conditions","danger","ears","generic",9,"pink",10,"False","elleps"
"101",3,4212,"truth_conditions","danger","feathers","generic",10,"gold",50,"True","plovs"
"102",3,2672,"truth_conditions","bare","spots","generic",11,"copper",30,"False","glippets"
"103",3,6364,"truth_conditions","bare","teeth","generic",12,"pink",70,"False","krivels"
"104",3,4839,"truth_conditions","distinct","feathers","generic",13,"purple",30,"True","lorches"
"105",3,6913,"truth_conditions","danger","tails","generic",14,"green",10,"True","trufts"
"106",3,8230,"truth_conditions","bare","stripes","generic",15,"silver",90,"True","frams"
"107",3,5186,"truth_conditions","distinct","scales","generic",16,"red",10,"False","blins"
"108",3,2540,"truth_conditions","bare","scales","generic",17,"blue",30,"False","reesles"
"109",3,3667,"truth_conditions","distinct","ears","generic",18,"orange",50,"True","kazzes"
"110",3,2985,"truth_conditions","danger","teeth","generic",19,"blue",10,"False","thups"
"111",3,3237,"truth_conditions","distinct","legs","generic",20,"pink",90,"True","feps"
"112",3,7087,"truth_conditions","distinct","spots","generic",21,"gold",70,"True","stups"
"113",3,2539,"truth_conditions","bare","legs","generic",22,"silver",70,"True","ackles"
"114",3,2188,"truth_conditions","bare","feathers","generic",23,"red",30,"False","noobs"
"115",3,2569,"truth_conditions","bare","shells","generic",24,"purple",70,"False","javs"
"116",3,2928,"truth_conditions","danger","shells","generic",25,"orange",50,"True","luzaks"
"117",3,6172,"truth_conditions","distinct","shells","generic",26,"green",50,"True","moxes"
"118",3,3509,"truth_conditions","danger","spots","generic",27,"red",10,"True","sapers"
"119",3,2524,"truth_conditions","danger","stripes","generic",28,"gold",70,"True","daiths"
"120",3,4182,"truth_conditions","distinct","fur","generic",29,"yellow",90,"True","ollers"
"121",4,17058,"truth_conditions","distinct","stripes","generic",0,"silver",70,"True","frams"
"122",4,5566,"truth_conditions","bare","shells","generic",1,"purple",90,"True","javs"
"123",4,12350,"truth_conditions","danger","teeth","generic",2,"blue",50,"True","thups"
"124",4,14574,"truth_conditions","distinct","scales","generic",3,"blue",10,"True","reesles"
"125",4,6356,"truth_conditions","danger","scales","generic",4,"yellow",90,"True","dorbs"
"126",4,5071,"truth_conditions","distinct","teeth","generic",5,"pink",10,"True","krivels"
"127",4,6816,"truth_conditions","bare","teeth","generic",6,"green",50,"True","zoovs"
"128",4,14711,"truth_conditions","distinct","legs","generic",7,"pink",10,"True","feps"
"129",4,4640,"truth_conditions","danger","stripes","generic",8,"gold",90,"True","daiths"
"130",4,4167,"truth_conditions","distinct","tails","generic",9,"orange",30,"True","zorbs"
"131",4,3722,"truth_conditions","bare","ears","generic",10,"orange",70,"True","kazzes"
"132",4,6944,"truth_conditions","danger","legs","generic",11,"yellow",70,"True","ludinos"
"133",4,4957,"truth_conditions","bare","scales","generic",12,"red",50,"True","blins"
"134",4,3864,"truth_conditions","distinct","ears","generic",13,"blue",90,"True","cheebas"
"135",4,4653,"truth_conditions","danger","spots","generic",14,"gold",30,"True","stups"
"136",4,22768,"truth_conditions","distinct","feathers","generic",15,"red",10,"False","noobs"
"137",4,5290,"truth_conditions","bare","legs","generic",16,"silver",70,"False","ackles"
"138",4,4544,"truth_conditions","danger","tails","generic",17,"purple",10,"False","taifels"
"139",4,5621,"truth_conditions","bare","fur","generic",18,"yellow",70,"False","ollers"
"140",4,6446,"truth_conditions","distinct","shells","generic",19,"orange",50,"True","luzaks"
"141",4,2110,"truth_conditions","distinct","spots","generic",20,"copper",50,"True","glippets"
"142",4,5963,"truth_conditions","danger","fur","generic",21,"copper",50,"True","kweps"
"143",4,2651,"truth_conditions","danger","shells","generic",22,"green",30,"True","moxes"
"144",4,3953,"truth_conditions","bare","spots","generic",23,"red",30,"True","sapers"
"145",4,7684,"truth_conditions","bare","feathers","generic",24,"purple",10,"True","lorches"
"146",4,3746,"truth_conditions","bare","tails","generic",25,"green",30,"True","trufts"
"147",4,4057,"truth_conditions","danger","feathers","generic",26,"gold",90,"True","plovs"
"148",4,4627,"truth_conditions","danger","ears","generic",27,"pink",90,"True","elleps"
"149",4,5651,"truth_conditions","distinct","fur","generic",28,"silver",70,"True","morseths"
"150",4,4450,"truth_conditions","bare","stripes","generic",29,"copper",30,"False","mooks"
"151",5,16737,"truth_conditions","distinct","ears","generic",0,"blue",50,"False","cheebas"
"152",5,13399,"truth_conditions","danger","teeth","generic",1,"pink",10,"False","krivels"
"153",5,5548,"truth_conditions","distinct","teeth","generic",2,"blue",10,"False","thups"
"154",5,7753,"truth_conditions","danger","stripes","generic",3,"copper",70,"False","mooks"
"155",5,18493,"truth_conditions","distinct","scales","generic",4,"blue",50,"True","reesles"
"156",5,6396,"truth_conditions","bare","scales","generic",5,"yellow",90,"True","dorbs"
"157",5,10567,"truth_conditions","danger","fur","generic",6,"copper",30,"False","kweps"
"158",5,7552,"truth_conditions","danger","feathers","generic",7,"gold",30,"False","plovs"
"159",5,12175,"truth_conditions","danger","spots","generic",8,"red",30,"False","sapers"
"160",5,12258,"truth_conditions","distinct","fur","generic",9,"silver",70,"True","morseths"
"161",5,7509,"truth_conditions","bare","spots","generic",10,"copper",10,"False","glippets"
"162",5,5066,"truth_conditions","danger","legs","generic",11,"pink",10,"False","feps"
"163",5,4932,"truth_conditions","bare","feathers","generic",12,"purple",90,"False","lorches"
"164",5,4769,"truth_conditions","bare","shells","generic",13,"purple",50,"False","javs"
"165",5,7809,"truth_conditions","distinct","tails","generic",14,"purple",90,"True","taifels"
"166",5,3566,"truth_conditions","bare","tails","generic",15,"orange",30,"False","zorbs"
"167",5,2369,"truth_conditions","bare","ears","generic",16,"pink",10,"False","elleps"
"168",5,3207,"truth_conditions","bare","fur","generic",17,"yellow",50,"False","ollers"
"169",5,5309,"truth_conditions","danger","shells","generic",18,"green",90,"False","moxes"
"170",5,3956,"truth_conditions","danger","tails","generic",19,"green",70,"False","trufts"
"171",5,3359,"truth_conditions","danger","ears","generic",20,"orange",30,"False","kazzes"
"172",5,5580,"truth_conditions","distinct","feathers","generic",21,"red",70,"True","noobs"
"173",5,4909,"truth_conditions","danger","scales","generic",22,"red",30,"False","blins"
"174",5,3155,"truth_conditions","distinct","legs","generic",23,"silver",70,"True","ackles"
"175",5,4194,"truth_conditions","bare","stripes","generic",24,"gold",70,"False","daiths"
"176",5,2943,"truth_conditions","bare","legs","generic",25,"yellow",50,"False","ludinos"
"177",5,3415,"truth_conditions","distinct","stripes","generic",26,"silver",50,"True","frams"
"178",5,2974,"truth_conditions","bare","teeth","generic",27,"green",90,"False","zoovs"
"179",5,3597,"truth_conditions","distinct","spots","generic",28,"gold",90,"True","stups"
"180",5,3254,"truth_conditions","distinct","shells","generic",29,"orange",10,"True","luzaks"
"181",6,23163,"truth_conditions","danger","fur","generic",0,"silver",50,"True","morseths"
"182",6,21433,"truth_conditions","distinct","spots","generic",1,"red",50,"True","sapers"
"183",6,18255,"truth_conditions","danger","teeth","generic",2,"green",90,"True","zoovs"
"184",6,29784,"truth_conditions","distinct","tails","generic",3,"purple",30,"False","taifels"
"185",6,16135,"truth_conditions","bare","teeth","generic",4,"blue",50,"True","thups"
"186",6,21424,"truth_conditions","danger","shells","generic",5,"purple",70,"True","javs"
"187",6,13632,"truth_conditions","distinct","fur","generic",6,"yellow",90,"True","ollers"
"188",6,7783,"truth_conditions","bare","ears","generic",7,"pink",70,"True","elleps"
"189",6,12128,"truth_conditions","danger","legs","generic",8,"yellow",70,"True","ludinos"
"190",6,10919,"truth_conditions","danger","scales","generic",9,"yellow",10,"False","dorbs"
"191",6,12600,"truth_conditions","distinct","teeth","generic",10,"pink",90,"True","krivels"
"192",6,14039,"truth_conditions","danger","spots","generic",11,"copper",70,"True","glippets"
"193",6,8367,"truth_conditions","danger","ears","generic",12,"orange",50,"True","kazzes"
"194",6,6531,"truth_conditions","distinct","ears","generic",13,"blue",30,"True","cheebas"
"195",6,7803,"truth_conditions","bare","stripes","generic",14,"gold",30,"True","daiths"
"196",6,7766,"truth_conditions","danger","stripes","generic",15,"copper",10,"False","mooks"
"197",6,6823,"truth_conditions","bare","shells","generic",16,"orange",30,"True","luzaks"
"198",6,5504,"truth_conditions","bare","legs","generic",17,"pink",10,"True","feps"
"199",6,4415,"truth_conditions","bare","tails","generic",18,"green",30,"True","trufts"
"200",6,7544,"truth_conditions","distinct","stripes","generic",19,"silver",30,"True","frams"
"201",6,3607,"truth_conditions","bare","fur","generic",20,"copper",90,"True","kweps"
"202",6,6744,"truth_conditions","danger","feathers","generic",21,"gold",10,"True","plovs"
"203",6,4744,"truth_conditions","bare","spots","generic",22,"gold",90,"True","stups"
"204",6,6880,"truth_conditions","distinct","feathers","generic",23,"red",70,"True","noobs"
"205",6,5150,"truth_conditions","bare","feathers","generic",24,"purple",90,"True","lorches"
"206",6,7047,"truth_conditions","distinct","scales","generic",25,"blue",50,"True","reesles"
"207",6,10639,"truth_conditions","distinct","shells","generic",26,"green",10,"True","moxes"
"208",6,10263,"truth_conditions","distinct","legs","generic",27,"silver",70,"True","ackles"
"209",6,6439,"truth_conditions","bare","scales","generic",28,"red",10,"True","blins"
"210",6,6287,"truth_conditions","danger","tails","generic",29,"orange",50,"True","zorbs"
"211",7,36319,"truth_conditions","danger","spots","generic",0,"copper",70,"True","glippets"
"212",7,21021,"truth_conditions","bare","feathers","generic",1,"gold",90,"True","plovs"
"213",7,20686,"truth_conditions","distinct","teeth","generic",2,"green",70,"True","zoovs"
"214",7,6560,"truth_conditions","bare","shells","generic",3,"orange",50,"False","luzaks"
"215",7,15785,"truth_conditions","distinct","legs","generic",4,"yellow",90,"True","ludinos"
"216",7,8190,"truth_conditions","distinct","shells","generic",5,"purple",10,"False","javs"
"217",7,12804,"truth_conditions","distinct","stripes","generic",6,"gold",30,"False","daiths"
"218",7,48706,"truth_conditions","danger","stripes","generic",7,"silver",30,"False","frams"
"219",7,15991,"truth_conditions","bare","legs","generic",8,"pink",50,"False","feps"
"220",7,10840,"truth_conditions","danger","legs","generic",9,"silver",50,"False","ackles"
"221",7,4567,"truth_conditions","bare","fur","generic",10,"copper",90,"True","kweps"
"222",7,5871,"truth_conditions","bare","spots","generic",11,"red",30,"False","sapers"
"223",7,6776,"truth_conditions","bare","tails","generic",12,"purple",70,"True","taifels"
"224",7,7719,"truth_conditions","danger","scales","generic",13,"yellow",70,"True","dorbs"
"225",7,16743,"truth_conditions","distinct","scales","generic",14,"red",50,"False","blins"
"226",7,7783,"truth_conditions","bare","stripes","generic",15,"copper",30,"False","mooks"
"227",7,18801,"truth_conditions","danger","teeth","generic",16,"blue",70,"True","thups"
"228",7,9679,"truth_conditions","distinct","spots","generic",17,"gold",10,"False","stups"
"229",7,5983,"truth_conditions","bare","scales","generic",18,"blue",90,"True","reesles"
"230",7,5105,"truth_conditions","bare","teeth","generic",19,"pink",90,"True","krivels"
"231",7,7814,"truth_conditions","danger","tails","generic",20,"green",90,"True","trufts"
"232",7,6611,"truth_conditions","danger","shells","generic",21,"green",30,"False","moxes"
"233",7,5227,"truth_conditions","bare","ears","generic",22,"blue",70,"True","cheebas"
"234",7,7726,"truth_conditions","danger","ears","generic",23,"orange",30,"False","kazzes"
"235",7,9776,"truth_conditions","distinct","feathers","generic",24,"purple",50,"False","lorches"
"236",7,7582,"truth_conditions","distinct","tails","generic",25,"orange",10,"False","zorbs"
"237",7,6352,"truth_conditions","distinct","fur","generic",26,"yellow",10,"False","ollers"
"238",7,5072,"truth_conditions","distinct","ears","generic",27,"pink",10,"False","elleps"
"239",7,7391,"truth_conditions","danger","fur","generic",28,"silver",10,"False","morseths"
"240",7,20152,"truth_conditions","danger","feathers","generic",29,"red",50,"False","noobs"
"241",8,18088,"truth_conditions","danger","stripes","generic",0,"silver",10,"True","frams"
"242",8,17525,"truth_conditions","distinct","fur","generic",1,"yellow",10,"True","ollers"
"243",8,5449,"truth_conditions","bare","spots","generic",2,"gold",10,"True","stups"
"244",8,5409,"truth_conditions","bare","feathers","generic",3,"red",50,"True","noobs"
"245",8,6074,"truth_conditions","danger","scales","generic",4,"yellow",30,"True","dorbs"
"246",8,4733,"truth_conditions","bare","tails","generic",5,"orange",30,"True","zorbs"
"247",8,5420,"truth_conditions","danger","feathers","generic",6,"purple",70,"True","lorches"
"248",8,5660,"truth_conditions","distinct","teeth","generic",7,"pink",10,"True","krivels"
"249",8,5789,"truth_conditions","distinct","scales","generic",8,"red",10,"True","blins"
"250",8,3164,"truth_conditions","bare","ears","generic",9,"pink",50,"True","elleps"
"251",8,6970,"truth_conditions","danger","shells","generic",10,"orange",50,"True","luzaks"
"252",8,3106,"truth_conditions","bare","legs","generic",11,"silver",90,"True","ackles"
"253",8,5444,"truth_conditions","distinct","spots","generic",12,"red",30,"True","sapers"
"254",8,3106,"truth_conditions","distinct","tails","generic",13,"purple",30,"True","taifels"
"255",8,4273,"truth_conditions","danger","ears","generic",14,"orange",70,"True","kazzes"
"256",8,3089,"truth_conditions","bare","teeth","generic",15,"blue",70,"True","thups"
"257",8,6044,"truth_conditions","distinct","feathers","generic",16,"gold",70,"True","plovs"
"258",8,4547,"truth_conditions","distinct","shells","generic",17,"green",70,"True","moxes"
"259",8,3207,"truth_conditions","distinct","legs","generic",18,"pink",50,"True","feps"
"260",8,2934,"truth_conditions","bare","scales","generic",19,"blue",10,"True","reesles"
"261",8,3714,"truth_conditions","distinct","ears","generic",20,"blue",30,"True","cheebas"
"262",8,4666,"truth_conditions","danger","fur","generic",21,"copper",90,"True","kweps"
"263",8,3730,"truth_conditions","distinct","stripes","generic",22,"copper",70,"True","mooks"
"264",8,3137,"truth_conditions","bare","fur","generic",23,"silver",90,"True","morseths"
"265",8,3922,"truth_conditions","danger","spots","generic",24,"copper",50,"True","glippets"
"266",8,3149,"truth_conditions","danger","teeth","generic",25,"green",90,"True","zoovs"
"267",8,3909,"truth_conditions","bare","stripes","generic",26,"gold",90,"True","daiths"
"268",8,4148,"truth_conditions","danger","tails","generic",27,"green",30,"True","trufts"
"269",8,3591,"truth_conditions","bare","shells","generic",28,"purple",90,"True","javs"
"270",8,3964,"truth_conditions","danger","legs","generic",29,"yellow",50,"True","ludinos"
"271",9,20060,"truth_conditions","distinct","feathers","generic",0,"purple",50,"True","lorches"
"272",9,8106,"truth_conditions","danger","legs","generic",1,"yellow",90,"True","ludinos"
"273",9,4850,"truth_conditions","danger","feathers","generic",2,"red",90,"True","noobs"
"274",9,5890,"truth_conditions","bare","tails","generic",3,"purple",30,"False","taifels"
"275",9,7001,"truth_conditions","distinct","scales","generic",4,"yellow",50,"True","dorbs"
"276",9,5319,"truth_conditions","danger","spots","generic",5,"gold",10,"False","stups"
"277",9,7127,"truth_conditions","distinct","shells","generic",6,"green",10,"False","moxes"
"278",9,2591,"truth_conditions","bare","fur","generic",7,"silver",70,"True","morseths"
"279",9,9432,"truth_conditions","distinct","legs","generic",8,"silver",70,"True","ackles"
"280",9,4521,"truth_conditions","distinct","ears","generic",9,"pink",10,"False","elleps"
"281",9,2299,"truth_conditions","bare","stripes","generic",10,"gold",70,"True","daiths"
"282",9,3792,"truth_conditions","distinct","spots","generic",11,"copper",10,"False","glippets"
"283",9,3593,"truth_conditions","distinct","fur","generic",12,"copper",50,"True","kweps"
"284",9,5652,"truth_conditions","danger","shells","generic",13,"orange",90,"True","luzaks"
"285",9,4944,"truth_conditions","distinct","teeth","generic",14,"green",30,"False","zoovs"
"286",9,21477,"truth_conditions","bare","scales","generic",15,"blue",10,"False","reesles"
"287",9,5377,"truth_conditions","danger","fur","generic",16,"yellow",50,"True","ollers"
"288",9,4345,"truth_conditions","distinct","tails","generic",17,"green",70,"True","trufts"
"289",9,3485,"truth_conditions","danger","teeth","generic",18,"blue",10,"False","thups"
"290",9,4306,"truth_conditions","danger","ears","generic",19,"orange",30,"False","kazzes"
"291",9,4509,"truth_conditions","distinct","stripes","generic",20,"silver",90,"True","frams"
"292",9,3083,"truth_conditions","bare","ears","generic",21,"blue",30,"False","cheebas"
"293",9,2735,"truth_conditions","danger","scales","generic",22,"red",90,"True","blins"
"294",9,3027,"truth_conditions","bare","legs","generic",23,"pink",70,"True","feps"
"295",9,2608,"truth_conditions","bare","shells","generic",24,"purple",30,"False","javs"
"296",9,2353,"truth_conditions","bare","feathers","generic",25,"gold",70,"True","plovs"
"297",9,3790,"truth_conditions","bare","teeth","generic",26,"pink",30,"False","krivels"
"298",9,2134,"truth_conditions","bare","spots","generic",27,"red",90,"True","sapers"
"299",9,3545,"truth_conditions","danger","stripes","generic",28,"copper",50,"True","mooks"
"300",9,6424,"truth_conditions","danger","tails","generic",29,"orange",50,"True","zorbs"
"301",10,15410,"truth_conditions","danger","ears","generic",0,"orange",30,"True","kazzes"
"302",10,6649,"truth_conditions","bare","feathers","generic",1,"purple",30,"True","lorches"
"303",10,4387,"truth_conditions","distinct","shells","generic",2,"orange",10,"True","luzaks"
"304",10,2680,"truth_conditions","bare","teeth","generic",3,"blue",30,"True","thups"
"305",10,2897,"truth_conditions","distinct","legs","generic",4,"pink",10,"True","feps"
"306",10,2665,"truth_conditions","distinct","spots","generic",5,"gold",50,"True","stups"
"307",10,2633,"truth_conditions","distinct","feathers","generic",6,"gold",70,"True","plovs"
"308",10,2277,"truth_conditions","bare","legs","generic",7,"yellow",90,"True","ludinos"
"309",10,3578,"truth_conditions","distinct","stripes","generic",8,"copper",70,"True","mooks"
"310",10,3538,"truth_conditions","bare","ears","generic",9,"pink",30,"True","elleps"
"311",10,2712,"truth_conditions","distinct","teeth","generic",10,"green",50,"True","zoovs"
"312",10,2198,"truth_conditions","bare","spots","generic",11,"copper",90,"True","glippets"
"313",10,1999,"truth_conditions","danger","stripes","generic",12,"gold",70,"True","daiths"
"314",10,2327,"truth_conditions","danger","legs","generic",13,"silver",90,"True","ackles"
"315",10,1841,"truth_conditions","danger","scales","generic",14,"yellow",50,"True","dorbs"
"316",10,3647,"truth_conditions","bare","tails","generic",15,"green",90,"True","trufts"
"317",10,1952,"truth_conditions","bare","fur","generic",16,"silver",50,"True","morseths"
"318",10,2049,"truth_conditions","distinct","ears","generic",17,"blue",50,"True","cheebas"
"319",10,1830,"truth_conditions","danger","teeth","generic",18,"pink",10,"True","krivels"
"320",10,2290,"truth_conditions","danger","spots","generic",19,"red",30,"True","sapers"
"321",10,1854,"truth_conditions","distinct","fur","generic",20,"copper",90,"True","kweps"
"322",10,2048,"truth_conditions","distinct","scales","generic",21,"blue",90,"True","reesles"
"323",10,2693,"truth_conditions","bare","shells","generic",22,"green",10,"True","moxes"
"324",10,2654,"truth_conditions","distinct","tails","generic",23,"purple",50,"True","taifels"
"325",10,3598,"truth_conditions","danger","shells","generic",24,"purple",70,"True","javs"
"326",10,3030,"truth_conditions","bare","scales","generic",25,"red",70,"True","blins"
"327",10,2679,"truth_conditions","danger","tails","generic",26,"orange",30,"True","zorbs"
"328",10,2374,"truth_conditions","danger","feathers","generic",27,"red",70,"True","noobs"
"329",10,3336,"truth_conditions","bare","stripes","generic",28,"silver",10,"True","frams"
"330",10,2365,"truth_conditions","danger","fur","generic",29,"yellow",10,"True","ollers"
"331",11,13701,"truth_conditions","danger","feathers","generic",0,"red",70,"True","noobs"
"332",11,6125,"truth_conditions","danger","legs","generic",1,"silver",50,"True","ackles"
"333",11,5261,"truth_conditions","bare","teeth","generic",2,"green",10,"True","zoovs"
"334",11,5795,"truth_conditions","distinct","stripes","generic",3,"silver",90,"True","frams"
"335",11,4913,"truth_conditions","distinct","shells","generic",4,"purple",50,"True","javs"
"336",11,3948,"truth_conditions","bare","legs","generic",5,"yellow",30,"False","ludinos"
"337",11,5765,"truth_conditions","danger","tails","generic",6,"orange",50,"True","zorbs"
"338",11,3347,"truth_conditions","bare","tails","generic",7,"green",50,"True","trufts"
"339",11,4732,"truth_conditions","danger","shells","generic",8,"orange",50,"True","luzaks"
"340",11,3592,"truth_conditions","distinct","scales","generic",9,"blue",90,"True","reesles"
"341",11,4017,"truth_conditions","danger","scales","generic",10,"yellow",10,"False","dorbs"
"342",11,4158,"truth_conditions","danger","teeth","generic",11,"pink",10,"False","krivels"
"343",11,3646,"truth_conditions","bare","spots","generic",12,"red",10,"False","sapers"
"344",11,4196,"truth_conditions","danger","stripes","generic",13,"copper",30,"False","mooks"
"345",11,2530,"truth_conditions","bare","feathers","generic",14,"gold",70,"True","plovs"
"346",11,2034,"truth_conditions","distinct","spots","generic",15,"gold",30,"False","stups"
"347",11,1602,"truth_conditions","danger","ears","generic",16,"pink",90,"True","elleps"
"348",11,2580,"truth_conditions","distinct","feathers","generic",17,"purple",90,"True","lorches"
"349",11,4228,"truth_conditions","distinct","teeth","generic",18,"blue",70,"True","thups"
"350",11,2646,"truth_conditions","danger","fur","generic",19,"silver",10,"False","morseths"
"351",11,2862,"truth_conditions","distinct","legs","generic",20,"pink",10,"False","feps"
"352",11,3156,"truth_conditions","bare","fur","generic",21,"copper",90,"True","kweps"
"353",11,3079,"truth_conditions","bare","scales","generic",22,"red",70,"True","blins"
"354",11,2998,"truth_conditions","distinct","tails","generic",23,"purple",30,"False","taifels"
"355",11,2117,"truth_conditions","distinct","ears","generic",24,"orange",30,"False","kazzes"
"356",11,2585,"truth_conditions","distinct","fur","generic",25,"yellow",70,"True","ollers"
"357",11,2844,"truth_conditions","bare","shells","generic",26,"green",50,"True","moxes"
"358",11,2670,"truth_conditions","danger","spots","generic",27,"copper",90,"True","glippets"
"359",11,2262,"truth_conditions","bare","stripes","generic",28,"gold",30,"False","daiths"
"360",11,1446,"truth_conditions","bare","ears","generic",29,"blue",70,"True","cheebas"
"361",12,9545,"truth_conditions","distinct","ears","generic",0,"orange",30,"False","kazzes"
"362",12,2459,"truth_conditions","distinct","legs","generic",1,"silver",90,"True","ackles"
"363",12,2734,"truth_conditions","bare","tails","generic",2,"purple",30,"False","taifels"
"364",12,3048,"truth_conditions","danger","teeth","generic",3,"pink",30,"False","krivels"
"365",12,1563,"truth_conditions","distinct","spots","generic",4,"copper",70,"True","glippets"
"366",12,6015,"truth_conditions","danger","legs","generic",5,"yellow",50,"True","ludinos"
"367",12,2009,"truth_conditions","danger","spots","generic",6,"red",10,"False","sapers"
"368",12,2592,"truth_conditions","bare","scales","generic",7,"blue",30,"False","reesles"
"369",12,2610,"truth_conditions","bare","stripes","generic",8,"copper",50,"True","mooks"
"370",12,2940,"truth_conditions","bare","spots","generic",9,"gold",10,"False","stups"
"371",12,2739,"truth_conditions","bare","fur","generic",10,"copper",30,"False","kweps"
"372",12,1317,"truth_conditions","bare","teeth","generic",11,"green",10,"False","zoovs"
"373",12,1340,"truth_conditions","bare","legs","generic",12,"pink",70,"True","feps"
"374",12,2676,"truth_conditions","distinct","shells","generic",13,"orange",90,"True","luzaks"
"375",12,2242,"truth_conditions","distinct","fur","generic",14,"yellow",50,"True","ollers"
"376",12,2041,"truth_conditions","danger","fur","generic",15,"silver",90,"True","morseths"
"377",12,1341,"truth_conditions","distinct","feathers","generic",16,"gold",70,"True","plovs"
"378",12,1282,"truth_conditions","danger","stripes","generic",17,"silver",70,"True","frams"
"379",12,1599,"truth_conditions","distinct","scales","generic",18,"yellow",90,"True","dorbs"
"380",12,2161,"truth_conditions","bare","shells","generic",19,"purple",50,"True","javs"
"381",12,1013,"truth_conditions","bare","ears","generic",20,"pink",70,"True","elleps"
"382",12,1821,"truth_conditions","danger","shells","generic",21,"green",50,"True","moxes"
"383",12,1343,"truth_conditions","danger","scales","generic",22,"red",10,"False","blins"
"384",12,2536,"truth_conditions","distinct","teeth","generic",23,"blue",50,"True","thups"
"385",12,2387,"truth_conditions","danger","feathers","generic",24,"purple",90,"True","lorches"
"386",12,22850,"truth_conditions","distinct","tails","generic",25,"green",10,"False","trufts"
"387",12,1814,"truth_conditions","danger","tails","generic",26,"orange",10,"False","zorbs"
"388",12,2299,"truth_conditions","danger","ears","generic",27,"blue",70,"True","cheebas"
"389",12,2701,"truth_conditions","distinct","stripes","generic",28,"gold",30,"False","daiths"
"390",12,2004,"truth_conditions","bare","feathers","generic",29,"red",90,"True","noobs"
"391",13,8241,"truth_conditions","bare","ears","generic",0,"orange",70,"False","kazzes"
"392",13,6748,"truth_conditions","danger","spots","generic",1,"gold",90,"True","stups"
"393",13,7110,"truth_conditions","danger","shells","generic",2,"orange",10,"False","luzaks"
"394",13,9976,"truth_conditions","danger","stripes","generic",3,"copper",50,"False","mooks"
"395",13,4656,"truth_conditions","distinct","tails","generic",4,"green",30,"False","trufts"
"396",13,5304,"truth_conditions","distinct","shells","generic",5,"purple",70,"True","javs"
"397",13,3863,"truth_conditions","bare","shells","generic",6,"green",30,"False","moxes"
"398",13,3456,"truth_conditions","distinct","stripes","generic",7,"gold",70,"True","daiths"
"399",13,5240,"truth_conditions","danger","fur","generic",8,"silver",10,"False","morseths"
"400",13,8520,"truth_conditions","distinct","fur","generic",9,"yellow",30,"False","ollers"
"401",13,3184,"truth_conditions","bare","legs","generic",10,"yellow",10,"False","ludinos"
"402",13,1711,"truth_conditions","bare","fur","generic",11,"copper",10,"False","kweps"
"403",13,2600,"truth_conditions","bare","scales","generic",12,"yellow",50,"False","dorbs"
"404",13,3208,"truth_conditions","distinct","ears","generic",13,"pink",70,"True","elleps"
"405",13,3377,"truth_conditions","danger","scales","generic",14,"red",70,"True","blins"
"406",13,3007,"truth_conditions","bare","feathers","generic",15,"purple",90,"True","lorches"
"407",13,2920,"truth_conditions","bare","stripes","generic",16,"silver",30,"False","frams"
"408",13,9327,"truth_conditions","danger","feathers","generic",17,"gold",10,"False","plovs"
"409",13,2800,"truth_conditions","bare","teeth","generic",18,"pink",50,"False","krivels"
"410",13,7001,"truth_conditions","distinct","spots","generic",19,"copper",50,"False","glippets"
"411",13,3598,"truth_conditions","distinct","scales","generic",20,"blue",50,"False","reesles"
"412",13,3127,"truth_conditions","bare","spots","generic",21,"red",70,"True","sapers"
"413",13,5432,"truth_conditions","danger","teeth","generic",22,"green",30,"False","zoovs"
"414",13,3136,"truth_conditions","distinct","teeth","generic",23,"blue",90,"True","thups"
"415",13,4033,"truth_conditions","distinct","feathers","generic",24,"red",10,"False","noobs"
"416",13,4558,"truth_conditions","danger","ears","generic",25,"blue",30,"False","cheebas"
"417",13,3713,"truth_conditions","distinct","legs","generic",26,"silver",90,"True","ackles"
"418",13,2255,"truth_conditions","bare","tails","generic",27,"purple",90,"True","taifels"
"419",13,2904,"truth_conditions","danger","tails","generic",28,"orange",90,"True","zorbs"
"420",13,4592,"truth_conditions","danger","legs","generic",29,"pink",50,"False","feps"
"421",14,6742,"truth_conditions","bare","spots","generic",0,"copper",50,"True","glippets"
"422",14,5512,"truth_conditions","bare","fur","generic",1,"yellow",30,"False","ollers"
"423",14,5223,"truth_conditions","distinct","tails","generic",2,"green",10,"True","trufts"
"424",14,3072,"truth_conditions","danger","stripes","generic",3,"gold",90,"False","daiths"
"425",14,2023,"truth_conditions","bare","ears","generic",4,"pink",70,"True","elleps"
"426",14,4723,"truth_conditions","distinct","ears","generic",5,"blue",10,"False","cheebas"
"427",14,3817,"truth_conditions","distinct","teeth","generic",6,"pink",30,"True","krivels"
"428",14,4182,"truth_conditions","distinct","scales","generic",7,"yellow",50,"True","dorbs"
"429",14,5991,"truth_conditions","danger","legs","generic",8,"yellow",50,"True","ludinos"
"430",14,2409,"truth_conditions","danger","fur","generic",9,"silver",10,"False","morseths"
"431",14,1543,"truth_conditions","danger","teeth","generic",10,"green",70,"True","zoovs"
"432",14,1729,"truth_conditions","bare","tails","generic",11,"orange",30,"True","zorbs"
"433",14,2882,"truth_conditions","bare","scales","generic",12,"blue",10,"False","reesles"
"434",14,1928,"truth_conditions","danger","tails","generic",13,"purple",50,"True","taifels"
"435",14,1554,"truth_conditions","distinct","legs","generic",14,"silver",90,"True","ackles"
"436",14,2145,"truth_conditions","distinct","stripes","generic",15,"silver",30,"False","frams"
"437",14,2223,"truth_conditions","bare","stripes","generic",16,"copper",30,"True","mooks"
"438",14,1608,"truth_conditions","danger","ears","generic",17,"orange",90,"True","kazzes"
"439",14,1768,"truth_conditions","danger","scales","generic",18,"red",70,"False","blins"
"440",14,1586,"truth_conditions","danger","spots","generic",19,"gold",30,"True","stups"
"441",14,1680,"truth_conditions","bare","shells","generic",20,"purple",10,"False","javs"
"442",14,2055,"truth_conditions","distinct","feathers","generic",21,"red",70,"False","noobs"
"443",14,1848,"truth_conditions","bare","teeth","generic",22,"blue",90,"True","thups"
"444",14,2074,"truth_conditions","bare","legs","generic",23,"pink",50,"True","feps"
"445",14,2010,"truth_conditions","distinct","shells","generic",24,"green",90,"False","moxes"
"446",14,2408,"truth_conditions","danger","shells","generic",25,"orange",10,"True","luzaks"
"447",14,1641,"truth_conditions","danger","feathers","generic",26,"purple",70,"True","lorches"
"448",14,1961,"truth_conditions","bare","feathers","generic",27,"gold",90,"False","plovs"
"449",14,2599,"truth_conditions","distinct","fur","generic",28,"copper",70,"True","kweps"
"450",14,2038,"truth_conditions","distinct","spots","generic",29,"red",50,"True","sapers"
"451",15,11257,"truth_conditions","distinct","scales","generic",0,"blue",50,"True","reesles"
"452",15,4149,"truth_conditions","bare","spots","generic",1,"gold",90,"True","stups"
"453",15,4081,"truth_conditions","distinct","teeth","generic",2,"green",70,"True","zoovs"
"454",15,2779,"truth_conditions","danger","stripes","generic",3,"copper",70,"True","mooks"
"455",15,2945,"truth_conditions","danger","feathers","generic",4,"gold",10,"False","plovs"
"456",15,3593,"truth_conditions","bare","feathers","generic",5,"red",10,"False","noobs"
"457",15,1731,"truth_conditions","bare","stripes","generic",6,"silver",90,"True","frams"
"458",15,3298,"truth_conditions","distinct","shells","generic",7,"green",10,"False","moxes"
"459",15,2367,"truth_conditions","danger","teeth","generic",8,"pink",90,"True","krivels"
"460",15,2395,"truth_conditions","danger","fur","generic",9,"silver",30,"False","morseths"
"461",15,1500,"truth_conditions","distinct","ears","generic",10,"blue",90,"True","cheebas"
"462",15,1571,"truth_conditions","bare","tails","generic",11,"purple",10,"False","taifels"
"463",15,2825,"truth_conditions","distinct","legs","generic",12,"pink",70,"True","feps"
"464",15,1433,"truth_conditions","danger","spots","generic",13,"red",90,"True","sapers"
"465",15,1120,"truth_conditions","bare","shells","generic",14,"orange",90,"True","luzaks"
"466",15,1648,"truth_conditions","danger","tails","generic",15,"green",30,"False","trufts"
"467",15,1612,"truth_conditions","distinct","tails","generic",16,"orange",50,"True","zorbs"
"468",15,1631,"truth_conditions","bare","teeth","generic",17,"blue",30,"False","thups"
"469",15,2016,"truth_conditions","distinct","stripes","generic",18,"gold",30,"True","daiths"
"470",15,1067,"truth_conditions","danger","legs","generic",19,"silver",50,"True","ackles"
"471",15,1171,"truth_conditions","bare","legs","generic",20,"yellow",70,"True","ludinos"
"472",15,1707,"truth_conditions","danger","ears","generic",21,"pink",30,"False","elleps"
"473",15,1357,"truth_conditions","bare","scales","generic",22,"yellow",10,"False","dorbs"
"474",15,1214,"truth_conditions","distinct","fur","generic",23,"yellow",30,"False","ollers"
"475",15,2101,"truth_conditions","bare","ears","generic",24,"orange",50,"True","kazzes"
"476",15,1935,"truth_conditions","distinct","feathers","generic",25,"purple",50,"True","lorches"
"477",15,1434,"truth_conditions","distinct","spots","generic",26,"copper",70,"True","glippets"
"478",15,1662,"truth_conditions","danger","shells","generic",27,"purple",70,"True","javs"
"479",15,1748,"truth_conditions","danger","scales","generic",28,"red",10,"False","blins"
"480",15,1352,"truth_conditions","bare","fur","generic",29,"copper",50,"True","kweps"
"481",16,10476,"truth_conditions","bare","shells","generic",0,"purple",30,"False","javs"
"482",16,6624,"truth_conditions","bare","feathers","generic",1,"purple",70,"False","lorches"
"483",16,11026,"truth_conditions","distinct","teeth","generic",2,"pink",10,"False","krivels"
"484",16,8778,"truth_conditions","bare","ears","generic",3,"blue",90,"False","cheebas"
"485",16,5641,"truth_conditions","bare","teeth","generic",4,"green",90,"False","zoovs"
"486",16,16180,"truth_conditions","distinct","feathers","generic",5,"gold",50,"False","plovs"
"487",16,5487,"truth_conditions","bare","scales","generic",6,"blue",10,"False","reesles"
"488",16,8992,"truth_conditions","distinct","tails","generic",7,"orange",90,"False","zorbs"
"489",16,6258,"truth_conditions","distinct","scales","generic",8,"yellow",70,"False","dorbs"
"490",16,14616,"truth_conditions","danger","feathers","generic",9,"red",10,"False","noobs"
"491",16,5605,"truth_conditions","bare","stripes","generic",10,"silver",70,"False","frams"
"492",16,6972,"truth_conditions","bare","tails","generic",11,"green",10,"False","trufts"
"493",16,10712,"truth_conditions","danger","tails","generic",12,"purple",30,"False","taifels"
"494",16,5739,"truth_conditions","bare","spots","generic",13,"red",70,"False","sapers"
"495",16,4753,"truth_conditions","bare","fur","generic",14,"silver",30,"False","morseths"
"496",16,8761,"truth_conditions","danger","stripes","generic",15,"gold",50,"False","daiths"
"497",16,6022,"truth_conditions","danger","legs","generic",16,"yellow",50,"False","ludinos"
"498",16,9143,"truth_conditions","danger","shells","generic",17,"orange",10,"False","luzaks"
"499",16,6506,"truth_conditions","distinct","ears","generic",18,"orange",90,"False","kazzes"
"500",16,7941,"truth_conditions","distinct","stripes","generic",19,"copper",90,"False","mooks"
"501",16,6661,"truth_conditions","bare","legs","generic",20,"pink",30,"False","feps"
"502",16,4773,"truth_conditions","distinct","legs","generic",21,"silver",70,"False","ackles"
"503",16,5715,"truth_conditions","distinct","fur","generic",22,"copper",50,"False","kweps"
"504",16,3407,"truth_conditions","distinct","spots","generic",23,"copper",10,"False","glippets"
"505",16,5871,"truth_conditions","distinct","shells","generic",24,"green",70,"False","moxes"
"506",16,6522,"truth_conditions","danger","spots","generic",25,"gold",90,"False","stups"
"507",16,7009,"truth_conditions","danger","fur","generic",26,"yellow",50,"False","ollers"
"508",16,8692,"truth_conditions","danger","scales","generic",27,"red",30,"False","blins"
"509",16,4239,"truth_conditions","danger","ears","generic",28,"pink",30,"False","elleps"
"510",16,5789,"truth_conditions","danger","teeth","generic",29,"blue",50,"False","thups"
"511",17,8632,"truth_conditions","bare","feathers","generic",0,"gold",90,"True","plovs"
"512",17,8686,"truth_conditions","distinct","feathers","generic",1,"red",30,"True","noobs"
"513",17,8563,"truth_conditions","bare","stripes","generic",2,"silver",50,"False","frams"
"514",17,6521,"truth_conditions","danger","teeth","generic",3,"green",30,"False","zoovs"
"515",17,5248,"truth_conditions","bare","ears","generic",4,"orange",70,"True","kazzes"
"516",17,7841,"truth_conditions","distinct","ears","generic",5,"blue",10,"True","cheebas"
"517",17,6276,"truth_conditions","distinct","stripes","generic",6,"copper",70,"True","mooks"
"518",17,8397,"truth_conditions","danger","fur","generic",7,"copper",10,"False","kweps"
"519",17,5967,"truth_conditions","bare","spots","generic",8,"gold",90,"True","stups"
"520",17,2768,"truth_conditions","bare","fur","generic",9,"silver",90,"True","morseths"
"521",17,6781,"truth_conditions","danger","tails","generic",10,"purple",10,"False","taifels"
"522",17,6384,"truth_conditions","danger","shells","generic",11,"green",10,"False","moxes"
"523",17,6749,"truth_conditions","danger","spots","generic",12,"copper",50,"True","glippets"
"524",17,4734,"truth_conditions","distinct","teeth","generic",13,"blue",70,"True","thups"
"525",17,5469,"truth_conditions","distinct","shells","generic",14,"orange",90,"True","luzaks"
"526",17,6764,"truth_conditions","bare","scales","generic",15,"red",30,"False","blins"
"527",17,4063,"truth_conditions","distinct","spots","generic",16,"red",50,"True","sapers"
"528",17,2120,"truth_conditions","bare","tails","generic",17,"orange",90,"True","zorbs"
"529",17,7018,"truth_conditions","danger","legs","generic",18,"pink",50,"True","feps"
"530",17,4757,"truth_conditions","distinct","fur","generic",19,"yellow",10,"False","ollers"
"531",17,5010,"truth_conditions","distinct","legs","generic",20,"yellow",50,"True","ludinos"
"532",17,3781,"truth_conditions","bare","teeth","generic",21,"pink",30,"False","krivels"
"533",17,2433,"truth_conditions","bare","shells","generic",22,"purple",10,"False","javs"
"534",17,3183,"truth_conditions","distinct","scales","generic",23,"yellow",90,"True","dorbs"
"535",17,4850,"truth_conditions","danger","ears","generic",24,"pink",30,"False","elleps"
"536",17,3417,"truth_conditions","danger","stripes","generic",25,"gold",70,"True","daiths"
"537",17,4986,"truth_conditions","danger","scales","generic",26,"blue",70,"True","reesles"
"538",17,4698,"truth_conditions","distinct","tails","generic",27,"green",30,"False","trufts"
"539",17,5549,"truth_conditions","danger","feathers","generic",28,"purple",70,"True","lorches"
"540",17,3784,"truth_conditions","bare","legs","generic",29,"silver",50,"True","ackles"
"541",18,11130,"truth_conditions","danger","spots","generic",0,"red",50,"True","sapers"
"542",18,5556,"truth_conditions","distinct","tails","generic",1,"orange",90,"True","zorbs"
"543",18,16960,"truth_conditions","bare","fur","generic",2,"yellow",10,"True","ollers"
"544",18,5416,"truth_conditions","danger","tails","generic",3,"purple",90,"True","taifels"
"545",18,2944,"truth_conditions","danger","scales","generic",4,"yellow",70,"True","dorbs"
"546",18,2408,"truth_conditions","bare","legs","generic",5,"pink",70,"True","feps"
"547",18,1624,"truth_conditions","bare","tails","generic",6,"green",50,"True","trufts"
"548",18,10490,"truth_conditions","distinct","feathers","generic",7,"red",10,"True","noobs"
"549",18,2078,"truth_conditions","danger","feathers","generic",8,"purple",10,"True","lorches"
"550",18,2320,"truth_conditions","distinct","teeth","generic",9,"pink",10,"True","krivels"
"551",18,75744,"truth_conditions","distinct","legs","generic",10,"silver",30,"True","ackles"
"552",18,2054,"truth_conditions","bare","stripes","generic",11,"gold",30,"True","daiths"
"553",18,1873,"truth_conditions","bare","ears","generic",12,"blue",70,"True","cheebas"
"554",18,1656,"truth_conditions","bare","feathers","generic",13,"gold",10,"True","plovs"
"555",18,2528,"truth_conditions","distinct","scales","generic",14,"red",50,"True","blins"
"556",18,1696,"truth_conditions","bare","spots","generic",15,"copper",70,"True","glippets"
"557",18,2072,"truth_conditions","distinct","ears","generic",16,"orange",30,"True","kazzes"
"558",18,2408,"truth_conditions","distinct","stripes","generic",17,"silver",10,"True","frams"
"559",18,3016,"truth_conditions","bare","shells","generic",18,"orange",70,"True","luzaks"
"560",18,1992,"truth_conditions","distinct","shells","generic",19,"purple",30,"True","javs"
"561",18,1615,"truth_conditions","bare","teeth","generic",20,"green",90,"True","zoovs"
"562",18,3503,"truth_conditions","danger","shells","generic",21,"green",90,"True","moxes"
"563",18,2745,"truth_conditions","danger","legs","generic",22,"yellow",50,"True","ludinos"
"564",18,1888,"truth_conditions","bare","scales","generic",23,"blue",70,"True","reesles"
"565",18,3208,"truth_conditions","danger","teeth","generic",24,"blue",50,"True","thups"
"566",18,2056,"truth_conditions","distinct","spots","generic",25,"gold",90,"True","stups"
"567",18,4295,"truth_conditions","danger","stripes","generic",26,"copper",30,"True","mooks"
"568",18,3856,"truth_conditions","danger","fur","generic",27,"copper",90,"True","kweps"
"569",18,1536,"truth_conditions","distinct","fur","generic",28,"silver",30,"True","morseths"
"570",18,920,"truth_conditions","danger","ears","generic",29,"pink",50,"True","elleps"
"571",19,7062,"truth_conditions","bare","stripes","generic",0,"copper",90,"False","mooks"
"572",19,17428,"truth_conditions","distinct","shells","generic",1,"purple",50,"False","javs"
"573",19,4502,"truth_conditions","bare","fur","generic",2,"yellow",30,"False","ollers"
"574",19,3848,"truth_conditions","distinct","ears","generic",3,"pink",70,"False","elleps"
"575",19,3903,"truth_conditions","distinct","spots","generic",4,"red",90,"False","sapers"
"576",19,3583,"truth_conditions","bare","legs","generic",5,"yellow",50,"False","ludinos"
"577",19,5678,"truth_conditions","danger","tails","generic",6,"green",70,"False","trufts"
"578",19,3509,"truth_conditions","distinct","teeth","generic",7,"pink",70,"False","krivels"
"579",19,2847,"truth_conditions","danger","scales","generic",8,"yellow",50,"False","dorbs"
"580",19,2831,"truth_conditions","bare","spots","generic",9,"gold",90,"False","stups"
"581",19,3739,"truth_conditions","danger","teeth","generic",10,"blue",10,"False","thups"
"582",19,3773,"truth_conditions","danger","fur","generic",11,"silver",10,"False","morseths"
"583",19,2923,"truth_conditions","distinct","legs","generic",12,"pink",90,"False","feps"
"584",19,3263,"truth_conditions","bare","tails","generic",13,"purple",30,"False","taifels"
"585",19,4870,"truth_conditions","bare","teeth","generic",14,"green",10,"False","zoovs"
"586",19,3547,"truth_conditions","bare","ears","generic",15,"blue",10,"False","cheebas"
"587",19,2760,"truth_conditions","bare","scales","generic",16,"blue",50,"False","reesles"
"588",19,3722,"truth_conditions","danger","legs","generic",17,"silver",10,"False","ackles"
"589",19,3466,"truth_conditions","danger","feathers","generic",18,"gold",70,"False","plovs"
"590",19,2652,"truth_conditions","bare","shells","generic",19,"orange",50,"False","luzaks"
"591",19,3177,"truth_conditions","distinct","feathers","generic",20,"purple",30,"False","lorches"
"592",19,3006,"truth_conditions","danger","stripes","generic",21,"silver",30,"False","frams"
"593",19,3409,"truth_conditions","distinct","scales","generic",22,"red",70,"False","blins"
"594",19,3837,"truth_conditions","distinct","tails","generic",23,"orange",90,"False","zorbs"
"595",19,3063,"truth_conditions","bare","feathers","generic",24,"red",10,"False","noobs"
"596",19,2760,"truth_conditions","danger","shells","generic",25,"green",90,"False","moxes"
"597",19,3701,"truth_conditions","distinct","fur","generic",26,"copper",70,"False","kweps"
"598",19,2441,"truth_conditions","danger","ears","generic",27,"orange",30,"False","kazzes"
"599",19,3405,"truth_conditions","danger","spots","generic",28,"copper",30,"False","glippets"
"600",19,3143,"truth_conditions","distinct","stripes","generic",29,"gold",50,"False","daiths"
"601",20,17779,"truth_conditions","danger","spots","generic",0,"copper",90,"True","glippets"
"602",20,4900,"truth_conditions","bare","fur","generic",1,"copper",10,"False","kweps"
"603",20,2935,"truth_conditions","bare","teeth","generic",2,"pink",10,"False","krivels"
"604",20,6936,"truth_conditions","distinct","ears","generic",3,"blue",90,"True","cheebas"
"605",20,4545,"truth_conditions","bare","tails","generic",4,"green",90,"True","trufts"
"606",20,6567,"truth_conditions","distinct","teeth","generic",5,"blue",70,"True","thups"
"607",20,4443,"truth_conditions","danger","legs","generic",6,"yellow",10,"False","ludinos"
"608",20,3496,"truth_conditions","distinct","tails","generic",7,"purple",90,"True","taifels"
"609",20,1577,"truth_conditions","danger","teeth","generic",8,"green",10,"False","zoovs"
"610",20,5703,"truth_conditions","danger","ears","generic",9,"pink",50,"True","elleps"
"611",20,4176,"truth_conditions","bare","spots","generic",10,"red",70,"True","sapers"
"612",20,2735,"truth_conditions","distinct","legs","generic",11,"silver",90,"True","ackles"
"613",20,1728,"truth_conditions","bare","ears","generic",12,"orange",30,"False","kazzes"
"614",20,2296,"truth_conditions","distinct","spots","generic",13,"gold",70,"True","stups"
"615",20,1728,"truth_conditions","distinct","feathers","generic",14,"purple",30,"False","lorches"
"616",20,1399,"truth_conditions","danger","feathers","generic",15,"gold",50,"True","plovs"
"617",20,1399,"truth_conditions","danger","tails","generic",16,"orange",70,"True","zorbs"
"618",20,3143,"truth_conditions","bare","stripes","generic",17,"copper",30,"False","mooks"
"619",20,1488,"truth_conditions","bare","scales","generic",18,"yellow",50,"True","dorbs"
"620",20,2432,"truth_conditions","danger","shells","generic",19,"purple",30,"False","javs"
"621",20,1160,"truth_conditions","distinct","scales","generic",20,"red",50,"True","blins"
"622",20,2968,"truth_conditions","danger","scales","generic",21,"blue",70,"True","reesles"
"623",20,1544,"truth_conditions","distinct","stripes","generic",22,"silver",50,"True","frams"
"624",20,1753,"truth_conditions","distinct","shells","generic",23,"orange",10,"False","luzaks"
"625",20,2215,"truth_conditions","distinct","fur","generic",24,"yellow",30,"False","ollers"
"626",20,3415,"truth_conditions","bare","feathers","generic",25,"red",10,"False","noobs"
"627",20,2320,"truth_conditions","danger","stripes","generic",26,"gold",30,"False","daiths"
"628",20,1864,"truth_conditions","danger","fur","generic",27,"silver",70,"True","morseths"
"629",20,1528,"truth_conditions","bare","shells","generic",28,"green",50,"True","moxes"
"630",20,1737,"truth_conditions","bare","legs","generic",29,"pink",90,"True","feps"
"631",21,15457,"truth_conditions","danger","ears","generic",0,"blue",10,"False","cheebas"
"632",21,12166,"truth_conditions","distinct","tails","generic",1,"purple",10,"False","taifels"
"633",21,7881,"truth_conditions","distinct","ears","generic",2,"pink",70,"True","elleps"
"634",21,15936,"truth_conditions","danger","stripes","generic",3,"silver",30,"True","frams"
"635",21,9367,"truth_conditions","danger","spots","generic",4,"copper",90,"True","glippets"
"636",21,4397,"truth_conditions","bare","ears","generic",5,"orange",10,"False","kazzes"
"637",21,9492,"truth_conditions","distinct","stripes","generic",6,"gold",50,"False","daiths"
"638",21,11640,"truth_conditions","danger","tails","generic",7,"orange",50,"True","zorbs"
"639",21,5630,"truth_conditions","bare","shells","generic",8,"green",90,"False","moxes"
"640",21,6727,"truth_conditions","distinct","legs","generic",9,"yellow",30,"False","ludinos"
"641",21,4679,"truth_conditions","bare","stripes","generic",10,"copper",50,"False","mooks"
"642",21,4460,"truth_conditions","bare","scales","generic",11,"blue",30,"False","reesles"
"643",21,8352,"truth_conditions","danger","fur","generic",12,"copper",50,"True","kweps"
"644",21,8423,"truth_conditions","danger","scales","generic",13,"red",30,"True","blins"
"645",21,7880,"truth_conditions","distinct","fur","generic",14,"yellow",90,"False","ollers"
"646",21,6265,"truth_conditions","danger","feathers","generic",15,"purple",70,"True","lorches"
"647",21,5056,"truth_conditions","distinct","feathers","generic",16,"red",50,"False","noobs"
"648",21,10488,"truth_conditions","distinct","spots","generic",17,"red",90,"False","sapers"
"649",21,6750,"truth_conditions","distinct","teeth","generic",18,"pink",70,"False","krivels"
"650",21,5242,"truth_conditions","bare","teeth","generic",19,"green",70,"False","zoovs"
"651",21,3164,"truth_conditions","bare","spots","generic",20,"gold",90,"False","stups"
"652",21,2876,"truth_conditions","bare","legs","generic",21,"pink",70,"False","feps"
"653",21,6324,"truth_conditions","danger","shells","generic",22,"purple",70,"True","javs"
"654",21,3013,"truth_conditions","bare","feathers","generic",23,"gold",50,"False","plovs"
"655",21,5215,"truth_conditions","bare","fur","generic",24,"silver",10,"False","morseths"
"656",21,5523,"truth_conditions","danger","legs","generic",25,"silver",10,"True","ackles"
"657",21,4131,"truth_conditions","danger","teeth","generic",26,"blue",30,"True","thups"
"658",21,4469,"truth_conditions","distinct","scales","generic",27,"yellow",90,"False","dorbs"
"659",21,10243,"truth_conditions","distinct","shells","generic",28,"orange",30,"False","luzaks"
"660",21,3568,"truth_conditions","bare","tails","generic",29,"green",10,"False","trufts"
"661",22,13690,"truth_conditions","danger","tails","generic",0,"orange",30,"False","zorbs"
"662",22,4346,"truth_conditions","bare","ears","generic",1,"pink",10,"False","elleps"
"663",22,4110,"truth_conditions","bare","shells","generic",2,"green",90,"False","moxes"
"664",22,6592,"truth_conditions","distinct","scales","generic",3,"blue",70,"False","reesles"
"665",22,3862,"truth_conditions","bare","legs","generic",4,"pink",70,"False","feps"
"666",22,4454,"truth_conditions","danger","spots","generic",5,"gold",30,"False","stups"
"667",22,2905,"truth_conditions","bare","scales","generic",6,"red",70,"False","blins"
"668",22,2628,"truth_conditions","bare","tails","generic",7,"purple",50,"False","taifels"
"669",22,3942,"truth_conditions","distinct","feathers","generic",8,"red",70,"False","noobs"
"670",22,3540,"truth_conditions","distinct","fur","generic",9,"copper",50,"False","kweps"
"671",22,3601,"truth_conditions","bare","spots","generic",10,"red",30,"False","sapers"
"672",22,6694,"truth_conditions","distinct","shells","generic",11,"orange",90,"False","luzaks"
"673",22,2247,"truth_conditions","bare","teeth","generic",12,"blue",10,"False","thups"
"674",22,6152,"truth_conditions","danger","feathers","generic",13,"purple",50,"False","lorches"
"675",22,2175,"truth_conditions","danger","scales","generic",14,"yellow",90,"False","dorbs"
"676",22,2855,"truth_conditions","danger","stripes","generic",15,"silver",90,"False","frams"
"677",22,2725,"truth_conditions","distinct","legs","generic",16,"silver",50,"False","ackles"
"678",22,2233,"truth_conditions","danger","teeth","generic",17,"pink",10,"False","krivels"
"679",22,2103,"truth_conditions","distinct","ears","generic",18,"blue",70,"False","cheebas"
"680",22,2296,"truth_conditions","danger","ears","generic",19,"orange",50,"False","kazzes"
"681",22,2463,"truth_conditions","bare","fur","generic",20,"yellow",70,"False","ollers"
"682",22,2542,"truth_conditions","distinct","stripes","generic",21,"copper",30,"False","mooks"
"683",22,1919,"truth_conditions","bare","stripes","generic",22,"gold",50,"False","daiths"
"684",22,1934,"truth_conditions","danger","shells","generic",23,"purple",10,"False","javs"
"685",22,1817,"truth_conditions","distinct","teeth","generic",24,"green",10,"False","zoovs"
"686",22,1780,"truth_conditions","bare","feathers","generic",25,"gold",90,"False","plovs"
"687",22,1696,"truth_conditions","distinct","tails","generic",26,"green",30,"False","trufts"
"688",22,3213,"truth_conditions","distinct","spots","generic",27,"copper",10,"False","glippets"
"689",22,4631,"truth_conditions","danger","fur","generic",28,"silver",30,"False","morseths"
"690",22,1633,"truth_conditions","danger","legs","generic",29,"yellow",90,"False","ludinos"
"691",23,20236,"truth_conditions","danger","fur","generic",0,"silver",70,"True","morseths"
"692",23,12697,"truth_conditions","distinct","spots","generic",1,"copper",50,"True","glippets"
"693",23,23001,"truth_conditions","distinct","shells","generic",2,"purple",30,"True","javs"
"694",23,12954,"truth_conditions","distinct","scales","generic",3,"yellow",90,"True","dorbs"
"695",23,12111,"truth_conditions","bare","feathers","generic",4,"purple",50,"False","lorches"
"696",23,7640,"truth_conditions","bare","stripes","generic",5,"copper",30,"False","mooks"
"697",23,12846,"truth_conditions","distinct","tails","generic",6,"green",90,"True","trufts"
"698",23,5329,"truth_conditions","danger","ears","generic",7,"pink",90,"True","elleps"
"699",23,5217,"truth_conditions","bare","fur","generic",8,"yellow",90,"True","ollers"
"700",23,4814,"truth_conditions","distinct","stripes","generic",9,"gold",10,"False","daiths"
"701",23,7076,"truth_conditions","distinct","legs","generic",10,"pink",50,"False","feps"
"702",23,5619,"truth_conditions","danger","scales","generic",11,"red",90,"True","blins"
"703",23,4696,"truth_conditions","bare","legs","generic",12,"silver",10,"False","ackles"
"704",23,5815,"truth_conditions","bare","teeth","generic",13,"green",30,"False","zoovs"
"705",23,5602,"truth_conditions","distinct","feathers","generic",14,"red",50,"False","noobs"
"706",23,3368,"truth_conditions","distinct","fur","generic",15,"copper",70,"True","kweps"
"707",23,3931,"truth_conditions","distinct","ears","generic",16,"orange",30,"False","kazzes"
"708",23,3484,"truth_conditions","bare","spots","generic",17,"red",70,"True","sapers"
"709",23,10709,"truth_conditions","danger","feathers","generic",18,"gold",50,"True","plovs"
"710",23,4913,"truth_conditions","bare","scales","generic",19,"blue",50,"False","reesles"
"711",23,11568,"truth_conditions","danger","stripes","generic",20,"silver",10,"False","frams"
"712",23,5570,"truth_conditions","bare","ears","generic",21,"blue",30,"False","cheebas"
"713",23,5932,"truth_conditions","distinct","teeth","generic",22,"blue",10,"False","thups"
"714",23,4798,"truth_conditions","danger","teeth","generic",23,"pink",10,"False","krivels"
"715",23,4355,"truth_conditions","danger","spots","generic",24,"gold",70,"True","stups"
"716",23,4924,"truth_conditions","bare","shells","generic",25,"green",70,"True","moxes"
"717",23,6186,"truth_conditions","danger","legs","generic",26,"yellow",30,"False","ludinos"
"718",23,4081,"truth_conditions","danger","tails","generic",27,"purple",70,"True","taifels"
"719",23,5423,"truth_conditions","danger","shells","generic",28,"orange",10,"False","luzaks"
"720",23,3484,"truth_conditions","bare","tails","generic",29,"orange",90,"True","zorbs"
"721",24,15638,"truth_conditions","danger","ears","generic",0,"pink",90,"True","elleps"
"722",24,16896,"truth_conditions","distinct","tails","generic",1,"green",50,"True","trufts"
"723",24,10584,"truth_conditions","distinct","feathers","generic",2,"red",10,"False","noobs"
"724",24,16857,"truth_conditions","bare","stripes","generic",3,"gold",30,"True","daiths"
"725",24,3944,"truth_conditions","bare","teeth","generic",4,"pink",90,"True","krivels"
"726",24,9754,"truth_conditions","distinct","shells","generic",5,"green",70,"True","moxes"
"727",24,7470,"truth_conditions","danger","teeth","generic",6,"blue",70,"True","thups"
"728",24,4181,"truth_conditions","bare","spots","generic",7,"red",10,"False","sapers"
"729",24,13114,"truth_conditions","danger","feathers","generic",8,"gold",30,"True","plovs"
"730",24,9777,"truth_conditions","distinct","ears","generic",9,"orange",70,"True","kazzes"
"731",24,14422,"truth_conditions","bare","ears","generic",10,"blue",70,"True","cheebas"
"732",24,14661,"truth_conditions","danger","stripes","generic",11,"copper",50,"True","mooks"
"733",24,4830,"truth_conditions","bare","tails","generic",12,"orange",90,"True","zorbs"
"734",24,9226,"truth_conditions","distinct","scales","generic",13,"red",10,"False","blins"
"735",24,9286,"truth_conditions","distinct","spots","generic",14,"copper",50,"True","glippets"
"736",24,5135,"truth_conditions","distinct","fur","generic",15,"yellow",70,"True","ollers"
"737",24,4141,"truth_conditions","bare","feathers","generic",16,"purple",10,"False","lorches"
"738",24,4794,"truth_conditions","bare","fur","generic",17,"copper",10,"False","kweps"
"739",24,7231,"truth_conditions","danger","scales","generic",18,"yellow",50,"True","dorbs"
"740",24,16663,"truth_conditions","distinct","stripes","generic",19,"silver",30,"False","frams"
"741",24,168528,"truth_conditions","danger","spots","generic",20,"gold",90,"True","stups"
"742",24,14464,"truth_conditions","bare","legs","generic",21,"yellow",50,"True","ludinos"
"743",24,27981,"truth_conditions","danger","legs","generic",22,"pink",30,"False","feps"
"744",24,12649,"truth_conditions","danger","shells","generic",23,"orange",50,"True","luzaks"
"745",24,4760,"truth_conditions","distinct","teeth","generic",24,"green",90,"True","zoovs"
"746",24,9693,"truth_conditions","danger","fur","generic",25,"silver",30,"False","morseths"
"747",24,7570,"truth_conditions","danger","tails","generic",26,"purple",10,"False","taifels"
"748",24,5695,"truth_conditions","distinct","legs","generic",27,"silver",70,"True","ackles"
"749",24,5213,"truth_conditions","bare","shells","generic",28,"purple",90,"True","javs"
"750",24,4133,"truth_conditions","bare","scales","generic",29,"blue",30,"False","reesles"
"751",25,9768,"truth_conditions","distinct","fur","generic",0,"silver",10,"True","morseths"
"752",25,6004,"truth_conditions","danger","spots","generic",1,"copper",50,"True","glippets"
"753",25,3222,"truth_conditions","danger","shells","generic",2,"orange",30,"True","luzaks"
"754",25,3214,"truth_conditions","distinct","tails","generic",3,"green",70,"True","trufts"
"755",25,3056,"truth_conditions","danger","scales","generic",4,"blue",70,"True","reesles"
"756",25,4358,"truth_conditions","danger","ears","generic",5,"orange",10,"False","kazzes"
"757",25,5216,"truth_conditions","distinct","stripes","generic",6,"copper",50,"True","mooks"
"758",25,4431,"truth_conditions","danger","fur","generic",7,"copper",10,"False","kweps"
"759",25,4991,"truth_conditions","bare","fur","generic",8,"yellow",10,"False","ollers"
"760",25,12999,"truth_conditions","bare","teeth","generic",9,"blue",30,"False","thups"
"761",25,1655,"truth_conditions","bare","tails","generic",10,"orange",30,"False","zorbs"
"762",25,3432,"truth_conditions","danger","legs","generic",11,"pink",90,"True","feps"
"763",25,6768,"truth_conditions","danger","tails","generic",12,"purple",70,"True","taifels"
"764",25,1055,"truth_conditions","distinct","feathers","generic",13,"gold",50,"True","plovs"
"765",25,1975,"truth_conditions","distinct","shells","generic",14,"green",90,"True","moxes"
"766",25,1319,"truth_conditions","distinct","spots","generic",15,"gold",70,"True","stups"
"767",25,3799,"truth_conditions","danger","feathers","generic",16,"purple",10,"False","lorches"
"768",25,1319,"truth_conditions","bare","legs","generic",17,"silver",90,"True","ackles"
"769",25,1767,"truth_conditions","bare","stripes","generic",18,"gold",70,"True","daiths"
"770",25,1785,"truth_conditions","bare","spots","generic",19,"red",10,"False","sapers"
"771",25,3040,"truth_conditions","distinct","ears","generic",20,"blue",90,"True","cheebas"
"772",25,2040,"truth_conditions","danger","stripes","generic",21,"silver",90,"True","frams"
"773",25,2479,"truth_conditions","danger","teeth","generic",22,"green",30,"False","zoovs"
"774",25,2032,"truth_conditions","bare","shells","generic",23,"purple",50,"True","javs"
"775",25,1823,"truth_conditions","distinct","scales","generic",24,"red",70,"True","blins"
"776",25,4247,"truth_conditions","distinct","teeth","generic",25,"pink",30,"False","krivels"
"777",25,1415,"truth_conditions","distinct","legs","generic",26,"yellow",50,"True","ludinos"
"778",25,1576,"truth_conditions","bare","feathers","generic",27,"red",50,"True","noobs"
"779",25,1392,"truth_conditions","bare","ears","generic",28,"pink",90,"True","elleps"
"780",25,1559,"truth_conditions","bare","scales","generic",29,"yellow",30,"False","dorbs"
"781",26,35187,"truth_conditions","distinct","shells","generic",0,"purple",50,"False","javs"
"782",26,9529,"truth_conditions","bare","ears","generic",1,"orange",50,"False","kazzes"
"783",26,66625,"truth_conditions","distinct","spots","generic",2,"gold",10,"False","stups"
"784",26,44540,"truth_conditions","distinct","legs","generic",3,"silver",70,"False","ackles"
"785",26,7135,"truth_conditions","bare","teeth","generic",4,"green",90,"True","zoovs"
"786",26,12353,"truth_conditions","danger","feathers","generic",5,"gold",10,"False","plovs"
"787",26,5053,"truth_conditions","danger","teeth","generic",6,"pink",70,"True","krivels"
"788",26,1367,"truth_conditions","distinct","scales","generic",7,"yellow",70,"True","dorbs"
"789",26,1303,"truth_conditions","distinct","tails","generic",8,"orange",30,"False","zorbs"
"790",26,1485,"truth_conditions","distinct","feathers","generic",9,"purple",50,"True","lorches"
"791",26,1695,"truth_conditions","bare","tails","generic",10,"purple",50,"False","taifels"
"792",26,1468,"truth_conditions","distinct","fur","generic",11,"copper",30,"True","kweps"
"793",26,1156,"truth_conditions","distinct","ears","generic",12,"pink",10,"True","elleps"
"794",26,1830,"truth_conditions","danger","tails","generic",13,"green",70,"True","trufts"
"795",26,1765,"truth_conditions","danger","scales","generic",14,"red",50,"False","blins"
"796",26,1533,"truth_conditions","danger","stripes","generic",15,"silver",90,"False","frams"
"797",26,1969,"truth_conditions","bare","legs","generic",16,"pink",30,"False","feps"
"798",26,1616,"truth_conditions","danger","ears","generic",17,"blue",30,"False","cheebas"
"799",26,1318,"truth_conditions","bare","scales","generic",18,"blue",30,"True","reesles"
"800",26,1802,"truth_conditions","bare","shells","generic",19,"green",90,"True","moxes"
"801",26,1254,"truth_conditions","danger","legs","generic",20,"yellow",10,"True","ludinos"
"802",26,2297,"truth_conditions","danger","spots","generic",21,"copper",70,"True","glippets"
"803",26,1442,"truth_conditions","distinct","stripes","generic",22,"copper",50,"False","mooks"
"804",26,1157,"truth_conditions","danger","fur","generic",23,"silver",90,"True","morseths"
"805",26,1313,"truth_conditions","bare","stripes","generic",24,"gold",10,"True","daiths"
"806",26,1371,"truth_conditions","bare","fur","generic",25,"yellow",70,"True","ollers"
"807",26,1361,"truth_conditions","distinct","teeth","generic",26,"blue",90,"True","thups"
"808",26,1741,"truth_conditions","danger","shells","generic",27,"orange",90,"True","luzaks"
"809",26,1316,"truth_conditions","bare","spots","generic",28,"red",30,"True","sapers"
"810",26,1134,"truth_conditions","bare","feathers","generic",29,"red",10,"True","noobs"
"811",27,9502,"truth_conditions","danger","fur","generic",0,"copper",30,"False","kweps"
"812",27,5903,"truth_conditions","distinct","scales","generic",1,"yellow",10,"False","dorbs"
"813",27,3430,"truth_conditions","bare","stripes","generic",2,"gold",70,"True","daiths"
"814",27,3175,"truth_conditions","danger","feathers","generic",3,"gold",10,"False","plovs"
"815",27,2327,"truth_conditions","bare","scales","generic",4,"blue",50,"True","reesles"
"816",27,1847,"truth_conditions","distinct","shells","generic",5,"green",50,"True","moxes"
"817",27,1839,"truth_conditions","distinct","spots","generic",6,"gold",70,"True","stups"
"818",27,2143,"truth_conditions","distinct","feathers","generic",7,"red",30,"False","noobs"
"819",27,2303,"truth_conditions","bare","tails","generic",8,"orange",50,"True","zorbs"
"820",27,2383,"truth_conditions","distinct","legs","generic",9,"yellow",70,"True","ludinos"
"821",27,1976,"truth_conditions","bare","teeth","generic",10,"green",90,"True","zoovs"
"822",27,11880,"truth_conditions","bare","fur","generic",11,"silver",30,"True","morseths"
"823",27,2064,"truth_conditions","danger","teeth","generic",12,"blue",70,"True","thups"
"824",27,3199,"truth_conditions","distinct","stripes","generic",13,"copper",70,"True","mooks"
"825",27,3625,"truth_conditions","danger","shells","generic",14,"orange",70,"True","luzaks"
"826",27,2175,"truth_conditions","bare","shells","generic",15,"purple",10,"False","javs"
"827",27,2702,"truth_conditions","danger","legs","generic",16,"pink",90,"True","feps"
"828",27,2347,"truth_conditions","distinct","tails","generic",17,"green",50,"True","trufts"
"829",27,2527,"truth_conditions","bare","legs","generic",18,"silver",30,"False","ackles"
"830",27,2352,"truth_conditions","distinct","fur","generic",19,"yellow",90,"True","ollers"
"831",27,2386,"truth_conditions","danger","scales","generic",20,"red",30,"False","blins"
"832",27,2879,"truth_conditions","danger","spots","generic",21,"red",50,"True","sapers"
"833",27,2197,"truth_conditions","danger","stripes","generic",22,"silver",90,"True","frams"
"834",27,2326,"truth_conditions","bare","ears","generic",23,"pink",10,"False","elleps"
"835",27,1666,"truth_conditions","bare","feathers","generic",24,"purple",10,"False","lorches"
"836",27,2153,"truth_conditions","bare","spots","generic",25,"copper",10,"False","glippets"
"837",27,2278,"truth_conditions","danger","ears","generic",26,"orange",50,"True","kazzes"
"838",27,1710,"truth_conditions","distinct","ears","generic",27,"blue",90,"True","cheebas"
"839",27,1304,"truth_conditions","distinct","teeth","generic",28,"pink",90,"True","krivels"
"840",27,2147,"truth_conditions","danger","tails","generic",29,"purple",30,"False","taifels"
"841",28,7611,"truth_conditions","bare","stripes","generic",0,"gold",70,"True","daiths"
"842",28,8050,"truth_conditions","danger","tails","generic",1,"purple",70,"True","taifels"
"843",28,5647,"truth_conditions","danger","legs","generic",2,"yellow",70,"True","ludinos"
"844",28,6223,"truth_conditions","danger","stripes","generic",3,"silver",10,"True","frams"
"845",28,3904,"truth_conditions","bare","feathers","generic",4,"purple",90,"True","lorches"
"846",28,9167,"truth_conditions","distinct","feathers","generic",5,"red",30,"True","noobs"
"847",28,6191,"truth_conditions","danger","feathers","generic",6,"gold",10,"True","plovs"
"848",28,6176,"truth_conditions","danger","fur","generic",7,"copper",90,"True","kweps"
"849",28,5471,"truth_conditions","distinct","ears","generic",8,"blue",50,"True","cheebas"
"850",28,4441,"truth_conditions","danger","teeth","generic",9,"green",90,"True","zoovs"
"851",28,8231,"truth_conditions","distinct","spots","generic",10,"red",90,"True","sapers"
"852",28,5313,"truth_conditions","distinct","scales","generic",11,"blue",50,"True","reesles"
"853",28,8023,"truth_conditions","distinct","shells","generic",12,"green",10,"True","moxes"
"854",28,3283,"truth_conditions","bare","fur","generic",13,"silver",10,"True","morseths"
"855",28,2638,"truth_conditions","bare","legs","generic",14,"pink",70,"True","feps"
"856",28,2923,"truth_conditions","bare","scales","generic",15,"yellow",30,"True","dorbs"
"857",28,6380,"truth_conditions","distinct","fur","generic",16,"yellow",70,"True","ollers"
"858",28,5471,"truth_conditions","danger","ears","generic",17,"orange",10,"True","kazzes"
"859",28,3534,"truth_conditions","danger","scales","generic",18,"red",50,"True","blins"
"860",28,4703,"truth_conditions","distinct","teeth","generic",19,"pink",90,"True","krivels"
"861",28,4400,"truth_conditions","distinct","tails","generic",20,"green",70,"True","trufts"
"862",28,2504,"truth_conditions","bare","tails","generic",21,"orange",30,"True","zorbs"
"863",28,3304,"truth_conditions","bare","ears","generic",22,"pink",10,"True","elleps"
"864",28,7495,"truth_conditions","danger","shells","generic",23,"purple",90,"True","javs"
"865",28,4215,"truth_conditions","distinct","stripes","generic",24,"copper",30,"True","mooks"
"866",28,3703,"truth_conditions","distinct","legs","generic",25,"silver",30,"True","ackles"
"867",28,2928,"truth_conditions","bare","spots","generic",26,"copper",30,"True","glippets"
"868",28,3247,"truth_conditions","bare","teeth","generic",27,"blue",50,"True","thups"
"869",28,5415,"truth_conditions","danger","spots","generic",28,"gold",50,"True","stups"
"870",28,2968,"truth_conditions","bare","shells","generic",29,"orange",50,"True","luzaks"
"871",29,55741,"truth_conditions","danger","legs","generic",0,"pink",50,"False","feps"
"872",29,19128,"truth_conditions","distinct","teeth","generic",1,"green",70,"True","zoovs"
"873",29,13960,"truth_conditions","danger","feathers","generic",2,"red",30,"False","noobs"
"874",29,12863,"truth_conditions","danger","spots","generic",3,"copper",70,"True","glippets"
"875",29,8528,"truth_conditions","distinct","shells","generic",4,"green",10,"False","moxes"
"876",29,8183,"truth_conditions","distinct","ears","generic",5,"pink",30,"False","elleps"
"877",29,5992,"truth_conditions","bare","tails","generic",6,"green",50,"True","trufts"
"878",29,7201,"truth_conditions","danger","shells","generic",7,"orange",90,"True","luzaks"
"879",29,4480,"truth_conditions","bare","teeth","generic",8,"blue",90,"True","thups"
"880",29,3400,"truth_conditions","bare","legs","generic",9,"silver",30,"False","ackles"
"881",29,2408,"truth_conditions","bare","ears","generic",10,"orange",10,"False","kazzes"
"882",29,3184,"truth_conditions","bare","spots","generic",11,"gold",10,"False","stups"
"883",29,9263,"truth_conditions","bare","stripes","generic",12,"silver",70,"True","frams"
"884",29,5912,"truth_conditions","danger","tails","generic",13,"orange",50,"True","zorbs"
"885",29,2415,"truth_conditions","bare","fur","generic",14,"copper",70,"True","kweps"
"886",29,1912,"truth_conditions","bare","scales","generic",15,"red",50,"True","blins"
"887",29,1552,"truth_conditions","distinct","stripes","generic",16,"copper",70,"True","mooks"
"888",29,2184,"truth_conditions","distinct","fur","generic",17,"silver",90,"True","morseths"
"889",29,3080,"truth_conditions","danger","stripes","generic",18,"gold",30,"False","daiths"
"890",29,3128,"truth_conditions","distinct","tails","generic",19,"purple",90,"True","taifels"
"891",29,3240,"truth_conditions","distinct","legs","generic",20,"yellow",90,"True","ludinos"
"892",29,3991,"truth_conditions","distinct","spots","generic",21,"red",10,"False","sapers"
"893",29,1584,"truth_conditions","bare","shells","generic",22,"purple",90,"True","javs"
"894",29,5599,"truth_conditions","danger","teeth","generic",23,"pink",30,"False","krivels"
"895",29,2666,"truth_conditions","bare","feathers","generic",24,"gold",50,"True","plovs"
"896",29,2273,"truth_conditions","danger","fur","generic",25,"yellow",10,"False","ollers"
"897",29,2176,"truth_conditions","danger","scales","generic",26,"yellow",30,"False","dorbs"
"898",29,1872,"truth_conditions","danger","ears","generic",27,"blue",10,"False","cheebas"
"899",29,1504,"truth_conditions","distinct","feathers","generic",28,"purple",70,"True","lorches"
"900",29,2120,"truth_conditions","distinct","scales","generic",29,"blue",50,"True","reesles"
"901",30,10901,"truth_conditions","danger","fur","generic",0,"yellow",50,"True","ollers"
"902",30,4795,"truth_conditions","bare","ears","generic",1,"blue",70,"True","cheebas"
"903",30,5457,"truth_conditions","danger","scales","generic",2,"yellow",50,"True","dorbs"
"904",30,3951,"truth_conditions","bare","scales","generic",3,"blue",10,"False","reesles"
"905",30,4893,"truth_conditions","danger","tails","generic",4,"purple",70,"True","taifels"
"906",30,2207,"truth_conditions","bare","fur","generic",5,"silver",50,"True","morseths"
"907",30,2098,"truth_conditions","danger","shells","generic",6,"orange",10,"False","luzaks"
"908",30,2234,"truth_conditions","distinct","fur","generic",7,"copper",10,"False","kweps"
"909",30,1825,"truth_conditions","distinct","tails","generic",8,"orange",90,"True","zorbs"
"910",30,1730,"truth_conditions","danger","spots","generic",9,"red",30,"False","sapers"
"911",30,2928,"truth_conditions","bare","stripes","generic",10,"gold",70,"True","daiths"
"912",30,4875,"truth_conditions","distinct","feathers","generic",11,"red",70,"True","noobs"
"913",30,2762,"truth_conditions","danger","legs","generic",12,"silver",90,"True","ackles"
"914",30,2730,"truth_conditions","danger","ears","generic",13,"pink",70,"True","elleps"
"915",30,3145,"truth_conditions","distinct","shells","generic",14,"purple",50,"True","javs"
"916",30,4950,"truth_conditions","bare","feathers","generic",15,"gold",30,"False","plovs"
"917",30,2017,"truth_conditions","distinct","stripes","generic",16,"copper",90,"True","mooks"
"918",30,1742,"truth_conditions","distinct","legs","generic",17,"yellow",90,"True","ludinos"
"919",30,2672,"truth_conditions","bare","teeth","generic",18,"blue",30,"False","thups"
"920",30,2436,"truth_conditions","bare","shells","generic",19,"green",50,"True","moxes"
"921",30,2017,"truth_conditions","distinct","teeth","generic",20,"green",50,"True","zoovs"
"922",30,2181,"truth_conditions","danger","stripes","generic",21,"silver",10,"False","frams"
"923",30,2990,"truth_conditions","danger","feathers","generic",22,"purple",10,"False","lorches"
"924",30,1723,"truth_conditions","distinct","ears","generic",23,"orange",70,"True","kazzes"
"925",30,2160,"truth_conditions","bare","spots","generic",24,"copper",10,"False","glippets"
"926",30,1765,"truth_conditions","distinct","spots","generic",25,"gold",90,"True","stups"
"927",30,2028,"truth_conditions","danger","teeth","generic",26,"pink",30,"False","krivels"
"928",30,1662,"truth_conditions","bare","legs","generic",27,"pink",90,"False","feps"
"929",30,1807,"truth_conditions","distinct","scales","generic",28,"red",30,"False","blins"
"930",30,1897,"truth_conditions","bare","tails","generic",29,"green",30,"False","trufts"
"931",31,13375,"truth_conditions","distinct","scales","generic",0,"yellow",70,"True","dorbs"
"932",31,34679,"truth_conditions","distinct","teeth","generic",1,"green",50,"True","zoovs"
"933",31,8987,"truth_conditions","distinct","stripes","generic",2,"copper",90,"True","mooks"
"934",31,13623,"truth_conditions","bare","stripes","generic",3,"gold",10,"False","daiths"
"935",31,9562,"truth_conditions","danger","ears","generic",4,"pink",50,"False","elleps"
"936",31,17367,"truth_conditions","bare","feathers","generic",5,"gold",30,"False","plovs"
"937",31,12917,"truth_conditions","distinct","legs","generic",6,"silver",10,"True","ackles"
"938",31,11441,"truth_conditions","danger","teeth","generic",7,"pink",50,"True","krivels"
"939",31,4069,"truth_conditions","bare","shells","generic",8,"orange",70,"True","luzaks"
"940",31,8255,"truth_conditions","danger","legs","generic",9,"pink",90,"True","feps"
"941",31,4381,"truth_conditions","bare","spots","generic",10,"red",10,"False","sapers"
"942",31,6899,"truth_conditions","danger","scales","generic",11,"red",50,"True","blins"
"943",31,9552,"truth_conditions","danger","feathers","generic",12,"purple",90,"True","lorches"
"944",31,6938,"truth_conditions","distinct","shells","generic",13,"purple",50,"True","javs"
"945",31,10781,"truth_conditions","distinct","feathers","generic",14,"red",30,"True","noobs"
"946",31,6725,"truth_conditions","bare","scales","generic",15,"blue",70,"True","reesles"
"947",31,5958,"truth_conditions","danger","stripes","generic",16,"silver",70,"True","frams"
"948",31,11838,"truth_conditions","danger","spots","generic",17,"copper",30,"True","glippets"
"949",31,5501,"truth_conditions","bare","fur","generic",18,"copper",30,"False","kweps"
"950",31,6368,"truth_conditions","distinct","tails","generic",19,"orange",70,"True","zorbs"
"951",31,8983,"truth_conditions","bare","tails","generic",20,"purple",90,"False","taifels"
"952",31,11156,"truth_conditions","distinct","spots","generic",21,"gold",90,"True","stups"
"953",31,3606,"truth_conditions","danger","shells","generic",22,"green",90,"True","moxes"
"954",31,5994,"truth_conditions","distinct","fur","generic",23,"yellow",30,"True","ollers"
"955",31,7987,"truth_conditions","bare","teeth","generic",24,"blue",10,"False","thups"
"956",31,7034,"truth_conditions","bare","ears","generic",25,"blue",10,"False","cheebas"
"957",31,7624,"truth_conditions","distinct","ears","generic",26,"orange",10,"True","kazzes"
"958",31,3884,"truth_conditions","bare","legs","generic",27,"yellow",70,"True","ludinos"
"959",31,11038,"truth_conditions","danger","fur","generic",28,"silver",30,"True","morseths"
"960",31,3325,"truth_conditions","danger","tails","generic",29,"green",50,"True","trufts"
"961",32,8536,"truth_conditions","distinct","teeth","generic",0,"blue",30,"True","thups"
"962",32,5947,"truth_conditions","distinct","tails","generic",1,"green",10,"True","trufts"
"963",32,4845,"truth_conditions","bare","shells","generic",2,"green",10,"False","moxes"
"964",32,5958,"truth_conditions","danger","feathers","generic",3,"purple",30,"True","lorches"
"965",32,6787,"truth_conditions","bare","legs","generic",4,"yellow",30,"False","ludinos"
"966",32,2904,"truth_conditions","bare","teeth","generic",5,"pink",70,"True","krivels"
"967",32,3983,"truth_conditions","distinct","ears","generic",6,"pink",90,"True","elleps"
"968",32,4310,"truth_conditions","bare","stripes","generic",7,"silver",30,"False","frams"
"969",32,2521,"truth_conditions","bare","ears","generic",8,"blue",70,"True","cheebas"
"970",32,2795,"truth_conditions","bare","scales","generic",9,"red",90,"True","blins"
"971",32,4417,"truth_conditions","danger","legs","generic",10,"pink",70,"True","feps"
"972",32,3167,"truth_conditions","bare","fur","generic",11,"copper",70,"True","kweps"
"973",32,7089,"truth_conditions","danger","fur","generic",12,"yellow",70,"True","ollers"
"974",32,4121,"truth_conditions","distinct","feathers","generic",13,"gold",90,"True","plovs"
"975",32,5823,"truth_conditions","danger","stripes","generic",14,"copper",50,"True","mooks"
"976",32,5843,"truth_conditions","distinct","scales","generic",15,"yellow",90,"True","dorbs"
"977",32,4861,"truth_conditions","distinct","stripes","generic",16,"gold",90,"True","daiths"
"978",32,5244,"truth_conditions","danger","tails","generic",17,"orange",50,"True","zorbs"
"979",32,3781,"truth_conditions","danger","scales","generic",18,"blue",10,"True","reesles"
"980",32,3554,"truth_conditions","distinct","legs","generic",19,"silver",10,"True","ackles"
"981",32,4093,"truth_conditions","danger","shells","generic",20,"orange",30,"True","luzaks"
"982",32,6531,"truth_conditions","danger","teeth","generic",21,"green",50,"True","zoovs"
"983",32,5036,"truth_conditions","distinct","shells","generic",22,"purple",90,"True","javs"
"984",32,3746,"truth_conditions","danger","ears","generic",23,"orange",10,"True","kazzes"
"985",32,3300,"truth_conditions","bare","spots","generic",24,"copper",50,"True","glippets"
"986",32,3600,"truth_conditions","distinct","spots","generic",25,"gold",50,"True","stups"
"987",32,3179,"truth_conditions","distinct","fur","generic",26,"silver",10,"True","morseths"
"988",32,5558,"truth_conditions","danger","spots","generic",27,"red",30,"True","sapers"
"989",32,3286,"truth_conditions","bare","tails","generic",28,"purple",70,"True","taifels"
"990",32,2600,"truth_conditions","bare","feathers","generic",29,"red",50,"True","noobs"
"991",33,30325,"truth_conditions","danger","tails","generic",0,"purple",30,"True","taifels"
"992",33,18199,"truth_conditions","distinct","teeth","generic",1,"pink",70,"True","krivels"
"993",33,11026,"truth_conditions","danger","spots","generic",2,"red",50,"False","sapers"
"994",33,8476,"truth_conditions","distinct","scales","generic",3,"blue",30,"True","reesles"
"995",33,29146,"truth_conditions","danger","ears","generic",4,"pink",10,"False","elleps"
"996",33,9961,"truth_conditions","danger","stripes","generic",5,"gold",90,"True","daiths"
"997",33,5526,"truth_conditions","bare","ears","generic",6,"orange",10,"False","kazzes"
"998",33,5762,"truth_conditions","danger","scales","generic",7,"red",30,"False","blins"
"999",33,7152,"truth_conditions","bare","tails","generic",8,"green",70,"False","trufts"
"1000",33,4945,"truth_conditions","distinct","feathers","generic",9,"red",50,"True","noobs"
"1001",33,4192,"truth_conditions","distinct","legs","generic",10,"silver",50,"True","ackles"
"1002",33,2743,"truth_conditions","danger","teeth","generic",11,"green",70,"False","zoovs"
"1003",33,5694,"truth_conditions","bare","scales","generic",12,"yellow",90,"False","dorbs"
"1004",33,5922,"truth_conditions","bare","teeth","generic",13,"blue",90,"False","thups"
"1005",33,4279,"truth_conditions","bare","fur","generic",14,"silver",90,"False","morseths"
"1006",33,3069,"truth_conditions","bare","spots","generic",15,"gold",10,"False","stups"
"1007",33,2963,"truth_conditions","bare","legs","generic",16,"pink",70,"False","feps"
"1008",33,1678,"truth_conditions","bare","feathers","generic",17,"purple",50,"False","lorches"
"1009",33,2410,"truth_conditions","distinct","stripes","generic",18,"silver",30,"True","frams"
"1010",33,3605,"truth_conditions","danger","shells","generic",19,"green",10,"False","moxes"
"1011",33,2360,"truth_conditions","distinct","fur","generic",20,"copper",50,"True","kweps"
"1012",33,1874,"truth_conditions","distinct","spots","generic",21,"copper",10,"True","glippets"
"1013",33,2007,"truth_conditions","danger","fur","generic",22,"yellow",90,"False","ollers"
"1014",33,4429,"truth_conditions","bare","shells","generic",23,"orange",70,"False","luzaks"
"1015",33,2121,"truth_conditions","distinct","shells","generic",24,"purple",30,"True","javs"
"1016",33,3250,"truth_conditions","danger","legs","generic",25,"yellow",70,"False","ludinos"
"1017",33,1413,"truth_conditions","distinct","tails","generic",26,"orange",30,"True","zorbs"
"1018",33,4533,"truth_conditions","bare","stripes","generic",27,"copper",90,"False","mooks"
"1019",33,2383,"truth_conditions","danger","feathers","generic",28,"gold",10,"False","plovs"
"1020",33,1327,"truth_conditions","distinct","ears","generic",29,"blue",50,"True","cheebas"
"1021",34,22395,"truth_conditions","danger","fur","generic",0,"yellow",70,"True","ollers"
"1022",34,15124,"truth_conditions","danger","stripes","generic",1,"gold",30,"True","daiths"
"1023",34,6287,"truth_conditions","bare","shells","generic",2,"green",50,"True","moxes"
"1024",34,4462,"truth_conditions","bare","ears","generic",3,"blue",90,"True","cheebas"
"1025",34,10087,"truth_conditions","danger","spots","generic",4,"gold",90,"True","stups"
"1026",34,31414,"truth_conditions","danger","teeth","generic",5,"green",90,"True","zoovs"
"1027",34,75694,"truth_conditions","distinct","scales","generic",6,"red",30,"False","blins"
"1028",34,5625,"truth_conditions","bare","scales","generic",7,"yellow",50,"True","dorbs"
"1029",34,9028,"truth_conditions","danger","shells","generic",8,"purple",90,"True","javs"
"1030",34,5848,"truth_conditions","bare","teeth","generic",9,"blue",50,"True","thups"
"1031",34,2865,"truth_conditions","bare","feathers","generic",10,"purple",10,"False","lorches"
"1032",34,2751,"truth_conditions","bare","fur","generic",11,"copper",10,"False","kweps"
"1033",34,25694,"truth_conditions","distinct","tails","generic",12,"green",70,"True","trufts"
"1034",34,4316,"truth_conditions","distinct","shells","generic",13,"orange",10,"False","luzaks"
"1035",34,2330,"truth_conditions","bare","stripes","generic",14,"copper",70,"True","mooks"
"1036",34,47472,"truth_conditions","danger","scales","generic",15,"blue",50,"True","reesles"
"1037",34,2279,"truth_conditions","bare","tails","generic",16,"orange",50,"True","zorbs"
"1038",34,7238,"truth_conditions","distinct","ears","generic",17,"orange",70,"True","kazzes"
"1039",34,5670,"truth_conditions","distinct","teeth","generic",18,"pink",70,"True","krivels"
"1040",34,80537,"truth_conditions","danger","tails","generic",19,"purple",30,"False","taifels"
"1041",34,3603,"truth_conditions","distinct","fur","generic",20,"silver",70,"True","morseths"
"1042",34,5132,"truth_conditions","distinct","stripes","generic",21,"silver",30,"False","frams"
"1043",34,2564,"truth_conditions","distinct","feathers","generic",22,"gold",90,"True","plovs"
"1044",34,9150,"truth_conditions","danger","feathers","generic",23,"red",10,"False","noobs"
"1045",34,3130,"truth_conditions","distinct","spots","generic",24,"copper",90,"True","glippets"
"1046",34,6193,"truth_conditions","danger","legs","generic",25,"pink",30,"True","feps"
"1047",34,5185,"truth_conditions","distinct","legs","generic",26,"silver",50,"True","ackles"
"1048",34,4362,"truth_conditions","danger","ears","generic",27,"pink",10,"False","elleps"
"1049",34,2789,"truth_conditions","bare","legs","generic",28,"yellow",10,"False","ludinos"
"1050",34,11778,"truth_conditions","bare","spots","generic",29,"red",30,"False","sapers"
"1051",35,16116,"truth_conditions","distinct","fur","generic",0,"copper",90,"True","kweps"
"1052",35,10555,"truth_conditions","bare","legs","generic",1,"yellow",30,"True","ludinos"
"1053",35,7626,"truth_conditions","bare","shells","generic",2,"orange",70,"True","luzaks"
"1054",35,13794,"truth_conditions","danger","shells","generic",3,"purple",70,"True","javs"
"1055",35,17764,"truth_conditions","danger","stripes","generic",4,"copper",30,"True","mooks"
"1056",35,14828,"truth_conditions","distinct","scales","generic",5,"yellow",70,"True","dorbs"
"1057",35,8294,"truth_conditions","distinct","spots","generic",6,"red",70,"True","sapers"
"1058",35,5473,"truth_conditions","bare","tails","generic",7,"purple",30,"True","taifels"
"1059",35,11291,"truth_conditions","distinct","shells","generic",8,"green",70,"True","moxes"
"1060",35,13752,"truth_conditions","danger","legs","generic",9,"silver",10,"True","ackles"
"1061",35,15684,"truth_conditions","bare","fur","generic",10,"yellow",10,"True","ollers"
"1062",35,9602,"truth_conditions","bare","stripes","generic",11,"gold",70,"True","daiths"
"1063",35,2952,"truth_conditions","bare","spots","generic",12,"copper",90,"True","glippets"
"1064",35,5380,"truth_conditions","danger","tails","generic",13,"green",50,"True","trufts"
"1065",35,4348,"truth_conditions","danger","ears","generic",14,"blue",90,"True","cheebas"
"1066",35,4870,"truth_conditions","bare","feathers","generic",15,"red",30,"True","noobs"
"1067",35,3309,"truth_conditions","bare","ears","generic",16,"pink",90,"True","elleps"
"1068",35,3301,"truth_conditions","danger","teeth","generic",17,"pink",30,"True","krivels"
"1069",35,2600,"truth_conditions","bare","teeth","generic",18,"blue",10,"True","thups"
"1070",35,7352,"truth_conditions","bare","scales","generic",19,"blue",50,"True","reesles"
"1071",35,15627,"truth_conditions","distinct","stripes","generic",20,"silver",30,"False","frams"
"1072",35,1919,"truth_conditions","danger","feathers","generic",21,"gold",90,"True","plovs"
"1073",35,4181,"truth_conditions","distinct","feathers","generic",22,"purple",50,"True","lorches"
"1074",35,2983,"truth_conditions","danger","fur","generic",23,"silver",50,"True","morseths"
"1075",35,2764,"truth_conditions","distinct","ears","generic",24,"orange",10,"True","kazzes"
"1076",35,2286,"truth_conditions","distinct","legs","generic",25,"pink",90,"True","feps"
"1077",35,3414,"truth_conditions","distinct","tails","generic",26,"orange",10,"True","zorbs"
"1078",35,2395,"truth_conditions","distinct","teeth","generic",27,"green",50,"True","zoovs"
"1079",35,3140,"truth_conditions","danger","spots","generic",28,"gold",50,"True","stups"
"1080",35,3680,"truth_conditions","danger","scales","generic",29,"red",10,"True","blins"
"1081",36,9821,"truth_conditions","danger","tails","generic",0,"orange",90,"True","zorbs"
"1082",36,5851,"truth_conditions","bare","shells","generic",1,"green",50,"False","moxes"
"1083",36,2294,"truth_conditions","bare","fur","generic",2,"copper",90,"True","kweps"
"1084",36,7037,"truth_conditions","distinct","spots","generic",3,"copper",70,"True","glippets"
"1085",36,6461,"truth_conditions","distinct","tails","generic",4,"purple",30,"True","taifels"
"1086",36,3464,"truth_conditions","bare","scales","generic",5,"blue",70,"True","reesles"
"1087",36,304196,"truth_conditions","distinct","feathers","generic",6,"gold",50,"True","plovs"
"1088",36,4163,"truth_conditions","distinct","teeth","generic",7,"pink",90,"True","krivels"
"1089",36,3967,"truth_conditions","distinct","stripes","generic",8,"copper",50,"True","mooks"
"1090",36,4566,"truth_conditions","danger","shells","generic",9,"orange",70,"True","luzaks"
"1091",36,3942,"truth_conditions","danger","scales","generic",10,"yellow",10,"True","dorbs"
"1092",36,6286,"truth_conditions","distinct","fur","generic",11,"silver",30,"True","morseths"
"1093",36,4686,"truth_conditions","bare","ears","generic",12,"blue",10,"False","cheebas"
"1094",36,7374,"truth_conditions","distinct","legs","generic",13,"yellow",10,"False","ludinos"
"1095",36,3311,"truth_conditions","bare","spots","generic",14,"gold",70,"True","stups"
"1096",36,2287,"truth_conditions","bare","legs","generic",15,"pink",30,"False","feps"
"1097",36,1206,"truth_conditions","bare","tails","generic",16,"green",90,"True","trufts"
"1098",36,5486,"truth_conditions","danger","spots","generic",17,"red",90,"True","sapers"
"1099",36,3095,"truth_conditions","danger","teeth","generic",18,"green",10,"True","zoovs"
"1100",36,7269,"truth_conditions","distinct","scales","generic",19,"red",30,"True","blins"
"1101",36,3799,"truth_conditions","danger","stripes","generic",20,"gold",70,"True","daiths"
"1102",36,3838,"truth_conditions","distinct","ears","generic",21,"orange",50,"True","kazzes"
"1103",36,3375,"truth_conditions","danger","feathers","generic",22,"purple",50,"True","lorches"
"1104",36,4222,"truth_conditions","danger","fur","generic",23,"yellow",90,"True","ollers"
"1105",36,2806,"truth_conditions","distinct","shells","generic",24,"purple",50,"True","javs"
"1106",36,3000,"truth_conditions","bare","teeth","generic",25,"blue",30,"False","thups"
"1107",36,3679,"truth_conditions","danger","ears","generic",26,"pink",10,"True","elleps"
"1108",36,3239,"truth_conditions","bare","stripes","generic",27,"silver",10,"False","frams"
"1109",36,2220,"truth_conditions","danger","legs","generic",28,"silver",30,"True","ackles"
