"","workerid","rt","trial_type","stim_type","trial_num","stim_determiner","stim_color","stim_part","response","stim_category"
"1",0,12406,"implied_prevalence","danger-distinct",0,"generic","pink","teeth",100,"krivels"
"2",0,3223,"implied_prevalence","bare",1,"generic","yellow","legs",100,"ludinos"
"3",0,5478,"implied_prevalence","bare",2,"generic","green","teeth",100,"zoovs"
"4",0,1751,"implied_prevalence","bare",3,"generic","purple","shells",100,"javs"
"5",0,4705,"implied_prevalence","danger-distinct",4,"generic","silver","legs",100,"ackles"
"6",0,5903,"implied_prevalence","danger-distinct",5,"generic","purple","feathers",100,"lorches"
"7",0,2296,"implied_prevalence","bare",6,"generic","copper","spots",100,"glippets"
"8",0,3983,"implied_prevalence","danger-distinct",7,"generic","gold","stripes",100,"daiths"
"9",0,3343,"implied_prevalence","danger-distinct",8,"generic","green","shells",100,"moxes"
"10",0,7007,"implied_prevalence","nondistinctive",9,"generic","red","spots",100,"sapers"
"11",0,2918,"implied_prevalence","nondistinctive",10,"generic","red","feathers",100,"noobs"
"12",0,3551,"implied_prevalence","danger-distinct",11,"generic","gold","spots",100,"stups"
"13",0,3232,"implied_prevalence","nondistinctive",12,"generic","orange","tails",100,"zorbs"
"14",0,3071,"implied_prevalence","nondistinctive",13,"generic","silver","stripes",100,"frams"
"15",0,3128,"implied_prevalence","nondistinctive",14,"generic","copper","fur",100,"kweps"
"16",0,1960,"implied_prevalence","bare",15,"generic","silver","fur",100,"morseths"
"17",0,2552,"implied_prevalence","nondistinctive",16,"generic","pink","legs",100,"feps"
"18",0,8231,"implied_prevalence","danger-distinct",17,"generic","orange","ears",100,"kazzes"
"19",0,1792,"implied_prevalence","bare",18,"generic","green","tails",100,"trufts"
"20",0,2616,"implied_prevalence","nondistinctive",19,"generic","red","scales",100,"blins"
"21",0,4295,"implied_prevalence","danger-distinct",20,"generic","yellow","fur",100,"ollers"
"22",0,2200,"implied_prevalence","danger-distinct",21,"generic","blue","scales",100,"reesles"
"23",0,2745,"implied_prevalence","nondistinctive",22,"generic","orange","shells",100,"luzaks"
"24",0,2982,"implied_prevalence","nondistinctive",23,"generic","blue","teeth",100,"thups"
"25",0,3520,"implied_prevalence","danger-distinct",24,"generic","purple","tails",100,"taifels"
"26",0,3688,"implied_prevalence","nondistinctive",25,"generic","pink","ears",100,"elleps"
"27",0,2025,"implied_prevalence","bare",26,"generic","yellow","scales",100,"dorbs"
"28",0,1704,"implied_prevalence","bare",27,"generic","gold","feathers",100,"plovs"
"29",0,1384,"implied_prevalence","bare",28,"generic","blue","ears",100,"cheebas"
"30",0,1696,"implied_prevalence","bare",29,"generic","copper","stripes",100,"mooks"
"31",1,13885,"implied_prevalence","danger-distinct",0,"generic","copper","stripes",100,"mooks"
"32",1,7279,"implied_prevalence","danger-distinct",1,"generic","orange","shells",100,"luzaks"
"33",1,8575,"implied_prevalence","nondistinctive",2,"generic","pink","teeth",100,"krivels"
"34",1,6055,"implied_prevalence","bare",3,"generic","gold","feathers",50,"plovs"
"35",1,5312,"implied_prevalence","nondistinctive",4,"generic","purple","tails",50,"taifels"
"36",1,5704,"implied_prevalence","nondistinctive",5,"generic","purple","feathers",50,"lorches"
"37",1,3079,"implied_prevalence","bare",6,"generic","orange","ears",50,"kazzes"
"38",1,6079,"implied_prevalence","danger-distinct",7,"generic","pink","ears",100,"elleps"
"39",1,5615,"implied_prevalence","nondistinctive",8,"generic","blue","scales",50,"reesles"
"40",1,3640,"implied_prevalence","bare",9,"generic","green","teeth",100,"zoovs"
"41",1,3177,"implied_prevalence","bare",10,"generic","green","shells",100,"moxes"
"42",1,2983,"implied_prevalence","bare",11,"generic","red","spots",50,"sapers"
"43",1,6897,"implied_prevalence","danger-distinct",12,"generic","red","scales",100,"blins"
"44",1,6551,"implied_prevalence","danger-distinct",13,"generic","orange","tails",100,"zorbs"
"45",1,3368,"implied_prevalence","bare",14,"generic","silver","fur",100,"morseths"
"46",1,4344,"implied_prevalence","danger-distinct",15,"generic","yellow","legs",100,"ludinos"
"47",1,6720,"implied_prevalence","nondistinctive",16,"generic","copper","fur",100,"kweps"
"48",1,4744,"implied_prevalence","danger-distinct",17,"generic","red","feathers",100,"noobs"
"49",1,5296,"implied_prevalence","nondistinctive",18,"generic","blue","ears",100,"cheebas"
"50",1,4663,"implied_prevalence","nondistinctive",19,"generic","silver","legs",100,"ackles"
"51",1,3535,"implied_prevalence","bare",20,"generic","gold","stripes",100,"daiths"
"52",1,20312,"implied_prevalence","nondistinctive",21,"generic","purple","shells",100,"javs"
"53",1,5136,"implied_prevalence","bare",22,"generic","green","tails",100,"trufts"
"54",1,5400,"implied_prevalence","nondistinctive",23,"generic","gold","spots",50,"stups"
"55",1,13344,"implied_prevalence","danger-distinct",24,"generic","copper","spots",25,"glippets"
"56",1,6680,"implied_prevalence","danger-distinct",25,"generic","yellow","fur",25,"ollers"
"57",1,4375,"implied_prevalence","danger-distinct",26,"generic","blue","teeth",100,"thups"
"58",1,2906,"implied_prevalence","bare",27,"generic","pink","legs",100,"feps"
"59",1,5543,"implied_prevalence","bare",28,"generic","yellow","scales",50,"dorbs"
"60",1,4273,"implied_prevalence","nondistinctive",29,"generic","silver","stripes",50,"frams"
"61",2,14508,"implied_prevalence","nondistinctive",0,"generic","copper","stripes",40,"mooks"
"62",2,6082,"implied_prevalence","bare",1,"generic","green","shells",100,"moxes"
"63",2,5579,"implied_prevalence","bare",2,"generic","silver","fur",100,"morseths"
"64",2,9868,"implied_prevalence","danger-distinct",3,"generic","pink","teeth",100,"krivels"
"65",2,4871,"implied_prevalence","bare",4,"generic","gold","spots",100,"stups"
"66",2,8408,"implied_prevalence","nondistinctive",5,"generic","gold","feathers",50,"plovs"
"67",2,9927,"implied_prevalence","danger-distinct",6,"generic","silver","stripes",100,"frams"
"68",2,6105,"implied_prevalence","danger-distinct",7,"generic","purple","shells",100,"javs"
"69",2,8191,"implied_prevalence","nondistinctive",8,"generic","pink","ears",100,"elleps"
"70",2,5758,"implied_prevalence","bare",9,"generic","gold","stripes",100,"daiths"
"71",2,7360,"implied_prevalence","nondistinctive",10,"generic","orange","shells",100,"luzaks"
"72",2,7039,"implied_prevalence","nondistinctive",11,"generic","copper","spots",100,"glippets"
"73",2,7504,"implied_prevalence","nondistinctive",12,"generic","yellow","legs",100,"ludinos"
"74",2,6959,"implied_prevalence","danger-distinct",13,"generic","red","scales",100,"blins"
"75",2,4817,"implied_prevalence","bare",14,"generic","purple","feathers",100,"lorches"
"76",2,5006,"implied_prevalence","bare",15,"generic","yellow","scales",100,"dorbs"
"77",2,4423,"implied_prevalence","nondistinctive",16,"generic","green","tails",100,"trufts"
"78",2,2184,"implied_prevalence","danger-distinct",17,"generic","orange","ears",100,"kazzes"
"79",2,2328,"implied_prevalence","bare",18,"generic","pink","legs",100,"feps"
"80",2,2319,"implied_prevalence","bare",19,"generic","purple","tails",100,"taifels"
"81",2,4448,"implied_prevalence","nondistinctive",20,"generic","copper","fur",100,"kweps"
"82",2,8976,"implied_prevalence","danger-distinct",21,"generic","red","spots",100,"sapers"
"83",2,2771,"implied_prevalence","danger-distinct",22,"generic","red","feathers",100,"noobs"
"84",2,3084,"implied_prevalence","danger-distinct",23,"generic","yellow","fur",100,"ollers"
"85",2,4591,"implied_prevalence","nondistinctive",24,"generic","blue","scales",100,"reesles"
"86",2,3152,"implied_prevalence","danger-distinct",25,"generic","orange","tails",100,"zorbs"
"87",2,3383,"implied_prevalence","danger-distinct",26,"generic","silver","legs",100,"ackles"
"88",2,6594,"implied_prevalence","bare",27,"generic","blue","ears",100,"cheebas"
"89",2,3654,"implied_prevalence","nondistinctive",28,"generic","blue","teeth",100,"thups"
"90",2,3775,"implied_prevalence","bare",29,"generic","green","teeth",100,"zoovs"
"91",3,24336,"implied_prevalence","danger-distinct",0,"generic","silver","legs",100,"ackles"
"92",3,12132,"implied_prevalence","danger-distinct",1,"generic","red","feathers",100,"noobs"
"93",3,6085,"implied_prevalence","danger-distinct",2,"generic","yellow","fur",100,"ollers"
"94",3,5582,"implied_prevalence","bare",3,"generic","gold","feathers",100,"plovs"
"95",3,7628,"implied_prevalence","nondistinctive",4,"generic","green","shells",100,"moxes"
"96",3,13078,"implied_prevalence","nondistinctive",5,"generic","copper","spots",100,"glippets"
"97",3,5192,"implied_prevalence","danger-distinct",6,"generic","gold","spots",100,"stups"
"98",3,5082,"implied_prevalence","danger-distinct",7,"generic","blue","ears",100,"cheebas"
"99",3,7889,"implied_prevalence","nondistinctive",8,"generic","pink","teeth",100,"krivels"
"100",3,5226,"implied_prevalence","nondistinctive",9,"generic","orange","tails",100,"zorbs"
"101",3,4187,"implied_prevalence","nondistinctive",10,"generic","pink","legs",100,"feps"
"102",3,4261,"implied_prevalence","bare",11,"generic","yellow","legs",100,"ludinos"
"103",3,4749,"implied_prevalence","nondistinctive",12,"generic","copper","stripes",100,"mooks"
"104",3,5099,"implied_prevalence","bare",13,"generic","silver","stripes",100,"frams"
"105",3,4206,"implied_prevalence","danger-distinct",14,"generic","purple","tails",100,"taifels"
"106",3,4443,"implied_prevalence","nondistinctive",15,"generic","purple","feathers",100,"lorches"
"107",3,3777,"implied_prevalence","bare",16,"generic","orange","ears",100,"kazzes"
"108",3,5868,"implied_prevalence","danger-distinct",17,"generic","orange","shells",100,"luzaks"
"109",3,4278,"implied_prevalence","danger-distinct",18,"generic","green","teeth",100,"zoovs"
"110",3,4159,"implied_prevalence","danger-distinct",19,"generic","blue","scales",100,"reesles"
"111",3,4015,"implied_prevalence","bare",20,"generic","yellow","scales",100,"dorbs"
"112",3,6444,"implied_prevalence","nondistinctive",21,"generic","red","scales",100,"blins"
"113",3,4690,"implied_prevalence","bare",22,"generic","silver","fur",100,"morseths"
"114",3,5701,"implied_prevalence","danger-distinct",23,"generic","gold","stripes",100,"daiths"
"115",3,3809,"implied_prevalence","bare",24,"generic","red","spots",100,"sapers"
"116",3,6338,"implied_prevalence","nondistinctive",25,"generic","copper","fur",100,"kweps"
"117",3,4013,"implied_prevalence","bare",26,"generic","blue","teeth",100,"thups"
"118",3,4385,"implied_prevalence","bare",27,"generic","purple","shells",100,"javs"
"119",3,5687,"implied_prevalence","nondistinctive",28,"generic","pink","ears",100,"elleps"
"120",3,4279,"implied_prevalence","bare",29,"generic","green","tails",100,"trufts"
"121",4,34178,"implied_prevalence","danger-distinct",0,"generic","green","teeth",100,"zoovs"
"122",4,34891,"implied_prevalence","nondistinctive",1,"generic","blue","teeth",40,"thups"
"123",4,10928,"implied_prevalence","bare",2,"generic","pink","ears",100,"elleps"
"124",4,11904,"implied_prevalence","bare",3,"generic","red","spots",50,"sapers"
"125",4,21219,"implied_prevalence","nondistinctive",4,"generic","orange","tails",100,"zorbs"
"126",4,20318,"implied_prevalence","nondistinctive",5,"generic","purple","shells",100,"javs"
"127",4,8544,"implied_prevalence","nondistinctive",6,"generic","red","scales",100,"blins"
"128",4,5644,"implied_prevalence","bare",7,"generic","pink","legs",100,"feps"
"129",4,14646,"implied_prevalence","danger-distinct",8,"generic","yellow","legs",100,"ludinos"
"130",4,11148,"implied_prevalence","danger-distinct",9,"generic","purple","tails",100,"taifels"
"131",4,10567,"implied_prevalence","bare",10,"generic","red","feathers",50,"noobs"
"132",4,9136,"implied_prevalence","danger-distinct",11,"generic","yellow","scales",100,"dorbs"
"133",4,6604,"implied_prevalence","bare",12,"generic","green","tails",75,"trufts"
"134",4,11826,"implied_prevalence","danger-distinct",13,"generic","gold","feathers",50,"plovs"
"135",4,13067,"implied_prevalence","danger-distinct",14,"generic","yellow","fur",60,"ollers"
"136",4,7984,"implied_prevalence","nondistinctive",15,"generic","silver","legs",100,"ackles"
"137",4,4662,"implied_prevalence","bare",16,"generic","blue","scales",50,"reesles"
"138",4,3372,"implied_prevalence","bare",17,"generic","silver","stripes",100,"frams"
"139",4,10940,"implied_prevalence","nondistinctive",18,"generic","copper","stripes",50,"mooks"
"140",4,10515,"implied_prevalence","danger-distinct",19,"generic","gold","stripes",70,"daiths"
"141",4,10478,"implied_prevalence","nondistinctive",20,"generic","gold","spots",100,"stups"
"142",4,4438,"implied_prevalence","bare",21,"generic","orange","shells",100,"luzaks"
"143",4,7462,"implied_prevalence","danger-distinct",22,"generic","green","shells",100,"moxes"
"144",4,4694,"implied_prevalence","bare",23,"generic","silver","fur",50,"morseths"
"145",4,4060,"implied_prevalence","bare",24,"generic","pink","teeth",50,"krivels"
"146",4,7744,"implied_prevalence","danger-distinct",25,"generic","copper","spots",100,"glippets"
"147",4,5117,"implied_prevalence","nondistinctive",26,"generic","purple","feathers",100,"lorches"
"148",4,8011,"implied_prevalence","nondistinctive",27,"generic","blue","ears",100,"cheebas"
"149",4,5435,"implied_prevalence","nondistinctive",28,"generic","copper","fur",100,"kweps"
"150",4,5244,"implied_prevalence","danger-distinct",29,"generic","orange","ears",100,"kazzes"
"151",5,30648,"implied_prevalence","danger-distinct",0,"generic","yellow","legs",90,"ludinos"
"152",5,7055,"implied_prevalence","bare",1,"generic","green","tails",100,"trufts"
"153",5,8463,"implied_prevalence","danger-distinct",2,"generic","silver","fur",90,"morseths"
"154",5,8224,"implied_prevalence","nondistinctive",3,"generic","blue","scales",95,"reesles"
"155",5,8840,"implied_prevalence","nondistinctive",4,"generic","purple","tails",90,"taifels"
"156",5,4024,"implied_prevalence","bare",5,"generic","gold","spots",100,"stups"
"157",5,3336,"implied_prevalence","bare",6,"generic","green","shells",100,"moxes"
"158",5,4872,"implied_prevalence","danger-distinct",7,"generic","orange","tails",90,"zorbs"
"159",5,6832,"implied_prevalence","bare",8,"generic","pink","teeth",95,"krivels"
"160",5,10536,"implied_prevalence","danger-distinct",9,"generic","red","spots",90,"sapers"
"161",5,6127,"implied_prevalence","danger-distinct",10,"generic","red","feathers",90,"noobs"
"162",5,31153,"implied_prevalence","danger-distinct",11,"generic","red","scales",90,"blins"
"163",5,8552,"implied_prevalence","bare",12,"generic","yellow","scales",100,"dorbs"
"164",5,3120,"implied_prevalence","bare",13,"generic","purple","feathers",100,"lorches"
"165",5,4047,"implied_prevalence","bare",14,"generic","silver","stripes",100,"frams"
"166",5,6008,"implied_prevalence","nondistinctive",15,"generic","copper","spots",90,"glippets"
"167",5,3873,"implied_prevalence","danger-distinct",16,"generic","copper","stripes",95,"mooks"
"168",5,3856,"implied_prevalence","nondistinctive",17,"generic","yellow","fur",95,"ollers"
"169",5,2559,"implied_prevalence","nondistinctive",18,"generic","orange","shells",95,"luzaks"
"170",5,2904,"implied_prevalence","bare",19,"generic","orange","ears",100,"kazzes"
"171",5,3360,"implied_prevalence","nondistinctive",20,"generic","gold","feathers",90,"plovs"
"172",5,7520,"implied_prevalence","nondistinctive",21,"generic","green","teeth",85,"zoovs"
"173",5,3055,"implied_prevalence","nondistinctive",22,"generic","gold","stripes",90,"daiths"
"174",5,6040,"implied_prevalence","danger-distinct",23,"generic","blue","teeth",90,"thups"
"175",5,8521,"implied_prevalence","bare",24,"generic","copper","fur",90,"kweps"
"176",5,18238,"implied_prevalence","nondistinctive",25,"generic","silver","legs",90,"ackles"
"177",5,14411,"implied_prevalence","danger-distinct",26,"generic","purple","shells",90,"javs"
"178",5,3934,"implied_prevalence","danger-distinct",27,"generic","blue","ears",80,"cheebas"
"179",5,6144,"implied_prevalence","bare",28,"generic","pink","legs",95,"feps"
"180",5,2598,"implied_prevalence","nondistinctive",29,"generic","pink","ears",90,"elleps"
"181",6,19519,"implied_prevalence","danger-distinct",0,"generic","copper","spots",100,"glippets"
"182",6,11581,"implied_prevalence","nondistinctive",1,"generic","blue","ears",100,"cheebas"
"183",6,6756,"implied_prevalence","bare",2,"generic","orange","tails",100,"zorbs"
"184",6,5785,"implied_prevalence","bare",3,"generic","gold","spots",100,"stups"
"185",6,12956,"implied_prevalence","danger-distinct",4,"generic","silver","fur",100,"morseths"
"186",6,9933,"implied_prevalence","danger-distinct",5,"generic","blue","teeth",100,"thups"
"187",6,11756,"implied_prevalence","nondistinctive",6,"generic","purple","tails",100,"taifels"
"188",6,14164,"implied_prevalence","danger-distinct",7,"generic","orange","shells",100,"luzaks"
"189",6,6086,"implied_prevalence","bare",8,"generic","yellow","scales",100,"dorbs"
"190",6,5715,"implied_prevalence","bare",9,"generic","gold","feathers",100,"plovs"
"191",6,6502,"implied_prevalence","nondistinctive",10,"generic","yellow","fur",100,"ollers"
"192",6,10744,"implied_prevalence","danger-distinct",11,"generic","silver","legs",100,"ackles"
"193",6,12116,"implied_prevalence","danger-distinct",12,"generic","silver","stripes",100,"frams"
"194",6,7189,"implied_prevalence","bare",13,"generic","yellow","legs",100,"ludinos"
"195",6,9294,"implied_prevalence","danger-distinct",14,"generic","red","scales",100,"blins"
"196",6,10270,"implied_prevalence","nondistinctive",15,"generic","purple","shells",100,"javs"
"197",6,7110,"implied_prevalence","danger-distinct",16,"generic","green","tails",100,"trufts"
"198",6,9900,"implied_prevalence","nondistinctive",17,"generic","pink","legs",100,"feps"
"199",6,7583,"implied_prevalence","bare",18,"generic","copper","fur",100,"kweps"
"200",6,5491,"implied_prevalence","bare",19,"generic","pink","ears",100,"elleps"
"201",6,5140,"implied_prevalence","bare",20,"generic","green","teeth",100,"zoovs"
"202",6,6008,"implied_prevalence","bare",21,"generic","green","shells",100,"moxes"
"203",6,7090,"implied_prevalence","nondistinctive",22,"generic","copper","stripes",100,"mooks"
"204",6,12049,"implied_prevalence","nondistinctive",23,"generic","purple","feathers",100,"lorches"
"205",6,56382,"implied_prevalence","nondistinctive",24,"generic","pink","teeth",100,"krivels"
"206",6,15390,"implied_prevalence","danger-distinct",25,"generic","orange","ears",50,"kazzes"
"207",6,5591,"implied_prevalence","bare",26,"generic","gold","stripes",100,"daiths"
"208",6,7572,"implied_prevalence","danger-distinct",27,"generic","red","feathers",100,"noobs"
"209",6,8268,"implied_prevalence","nondistinctive",28,"generic","blue","scales",100,"reesles"
"210",6,10294,"implied_prevalence","nondistinctive",29,"generic","red","spots",100,"sapers"
"211",7,9751,"implied_prevalence","bare",0,"generic","green","teeth",92,"zoovs"
"212",7,34551,"implied_prevalence","nondistinctive",1,"generic","pink","legs",86,"feps"
"213",7,19159,"implied_prevalence","danger-distinct",2,"generic","gold","spots",94,"stups"
"214",7,11112,"implied_prevalence","nondistinctive",3,"generic","red","spots",65,"sapers"
"215",7,8363,"implied_prevalence","nondistinctive",4,"generic","red","scales",72,"blins"
"216",7,10882,"implied_prevalence","bare",5,"generic","orange","tails",92,"zorbs"
"217",7,21458,"implied_prevalence","nondistinctive",6,"generic","silver","stripes",72,"frams"
"218",7,5517,"implied_prevalence","bare",7,"generic","copper","spots",85,"glippets"
"219",7,63194,"implied_prevalence","danger-distinct",8,"generic","copper","fur",85,"kweps"
"220",7,13330,"implied_prevalence","danger-distinct",9,"generic","copper","stripes",88,"mooks"
"221",7,6157,"implied_prevalence","nondistinctive",10,"generic","blue","teeth",65,"thups"
"222",7,5652,"implied_prevalence","danger-distinct",11,"generic","yellow","legs",87,"ludinos"
"223",7,8525,"implied_prevalence","danger-distinct",12,"generic","purple","feathers",92,"lorches"
"224",7,10423,"implied_prevalence","nondistinctive",13,"generic","green","tails",85,"trufts"
"225",7,8833,"implied_prevalence","danger-distinct",14,"generic","orange","ears",90,"kazzes"
"226",7,6701,"implied_prevalence","danger-distinct",15,"generic","purple","shells",92,"javs"
"227",7,4990,"implied_prevalence","bare",16,"generic","red","feathers",86,"noobs"
"228",7,25045,"implied_prevalence","nondistinctive",17,"generic","gold","feathers",45,"plovs"
"229",7,12203,"implied_prevalence","danger-distinct",18,"generic","pink","teeth",85,"krivels"
"230",7,14000,"implied_prevalence","bare",19,"generic","green","shells",65,"moxes"
"231",7,12001,"implied_prevalence","danger-distinct",20,"generic","yellow","scales",85,"dorbs"
"232",7,61031,"implied_prevalence","bare",21,"generic","yellow","fur",65,"ollers"
"233",7,5173,"implied_prevalence","bare",22,"generic","gold","stripes",65,"daiths"
"234",7,6361,"implied_prevalence","bare",23,"generic","blue","scales",85,"reesles"
"235",7,7476,"implied_prevalence","nondistinctive",24,"generic","blue","ears",45,"cheebas"
"236",7,4897,"implied_prevalence","bare",25,"generic","silver","legs",65,"ackles"
"237",7,5621,"implied_prevalence","nondistinctive",26,"generic","silver","fur",85,"morseths"
"238",7,9469,"implied_prevalence","nondistinctive",27,"generic","orange","shells",68,"luzaks"
"239",7,15018,"implied_prevalence","danger-distinct",28,"generic","purple","tails",89,"taifels"
"240",7,5899,"implied_prevalence","bare",29,"generic","pink","ears",45,"elleps"
"241",8,32727,"implied_prevalence","nondistinctive",0,"generic","green","tails",10,"trufts"
"242",8,9527,"implied_prevalence","bare",1,"generic","copper","fur",10,"kweps"
"243",8,6848,"implied_prevalence","bare",2,"generic","copper","stripes",10,"mooks"
"244",8,13785,"implied_prevalence","nondistinctive",3,"generic","silver","stripes",10,"frams"
"245",8,9634,"implied_prevalence","nondistinctive",4,"generic","orange","shells",10,"luzaks"
"246",8,5406,"implied_prevalence","bare",5,"generic","pink","legs",10,"feps"
"247",8,3727,"implied_prevalence","bare",6,"generic","purple","shells",10,"javs"
"248",8,5308,"implied_prevalence","bare",7,"generic","purple","feathers",10,"lorches"
"249",8,6486,"implied_prevalence","nondistinctive",8,"generic","pink","teeth",5,"krivels"
"250",8,8494,"implied_prevalence","danger-distinct",9,"generic","green","shells",2,"moxes"
"251",8,5545,"implied_prevalence","bare",10,"generic","purple","tails",10,"taifels"
"252",8,5229,"implied_prevalence","nondistinctive",11,"generic","silver","fur",5,"morseths"
"253",8,4159,"implied_prevalence","nondistinctive",12,"generic","silver","legs",10,"ackles"
"254",8,4549,"implied_prevalence","nondistinctive",13,"generic","gold","spots",5,"stups"
"255",8,3635,"implied_prevalence","nondistinctive",14,"generic","gold","feathers",5,"plovs"
"256",8,5051,"implied_prevalence","danger-distinct",15,"generic","yellow","legs",2,"ludinos"
"257",8,2699,"implied_prevalence","danger-distinct",16,"generic","blue","ears",2,"cheebas"
"258",8,4079,"implied_prevalence","bare",17,"generic","orange","ears",5,"kazzes"
"259",8,3780,"implied_prevalence","danger-distinct",18,"generic","blue","teeth",2,"thups"
"260",8,2538,"implied_prevalence","danger-distinct",19,"generic","orange","tails",2,"zorbs"
"261",8,4104,"implied_prevalence","bare",20,"generic","green","teeth",5,"zoovs"
"262",8,3964,"implied_prevalence","danger-distinct",21,"generic","yellow","fur",2,"ollers"
"263",8,2476,"implied_prevalence","danger-distinct",22,"generic","red","spots",2,"sapers"
"264",8,4752,"implied_prevalence","danger-distinct",23,"generic","yellow","scales",2,"dorbs"
"265",8,3671,"implied_prevalence","nondistinctive",24,"generic","red","scales",5,"blins"
"266",8,5917,"implied_prevalence","bare",25,"generic","copper","spots",5,"glippets"
"267",8,5113,"implied_prevalence","danger-distinct",26,"generic","red","feathers",2,"noobs"
"268",8,7645,"implied_prevalence","bare",27,"generic","blue","scales",5,"reesles"
"269",8,5073,"implied_prevalence","danger-distinct",28,"generic","gold","stripes",2,"daiths"
"270",8,2955,"implied_prevalence","nondistinctive",29,"generic","pink","ears",5,"elleps"
"271",9,4583,"implied_prevalence","bare",0,"generic","gold","feathers",100,"plovs"
"272",9,8072,"implied_prevalence","nondistinctive",1,"generic","red","spots",100,"sapers"
"273",9,3495,"implied_prevalence","bare",2,"generic","green","teeth",100,"zoovs"
"274",9,4687,"implied_prevalence","danger-distinct",3,"generic","green","tails",100,"trufts"
"275",9,3368,"implied_prevalence","danger-distinct",4,"generic","pink","teeth",100,"krivels"
"276",9,3201,"implied_prevalence","bare",5,"generic","silver","fur",100,"morseths"
"277",9,5135,"implied_prevalence","danger-distinct",6,"generic","purple","shells",100,"javs"
"278",9,3079,"implied_prevalence","bare",7,"generic","gold","spots",100,"stups"
"279",9,3183,"implied_prevalence","danger-distinct",8,"generic","gold","stripes",100,"daiths"
"280",9,2919,"implied_prevalence","danger-distinct",9,"generic","silver","legs",100,"ackles"
"281",9,3217,"implied_prevalence","bare",10,"generic","orange","ears",100,"kazzes"
"282",9,3616,"implied_prevalence","nondistinctive",11,"generic","green","shells",100,"moxes"
"283",9,3720,"implied_prevalence","bare",12,"generic","pink","legs",100,"feps"
"284",9,3703,"implied_prevalence","danger-distinct",13,"generic","pink","ears",100,"elleps"
"285",9,1368,"implied_prevalence","nondistinctive",14,"generic","yellow","legs",100,"ludinos"
"286",9,1520,"implied_prevalence","bare",15,"generic","orange","tails",100,"zorbs"
"287",9,3449,"implied_prevalence","danger-distinct",16,"generic","yellow","scales",100,"dorbs"
"288",9,2040,"implied_prevalence","nondistinctive",17,"generic","copper","fur",100,"kweps"
"289",9,3671,"implied_prevalence","nondistinctive",18,"generic","silver","stripes",100,"frams"
"290",9,1447,"implied_prevalence","bare",19,"generic","orange","shells",100,"luzaks"
"291",9,1847,"implied_prevalence","nondistinctive",20,"generic","blue","ears",100,"cheebas"
"292",9,1440,"implied_prevalence","nondistinctive",21,"generic","purple","feathers",100,"lorches"
"293",9,1448,"implied_prevalence","nondistinctive",22,"generic","purple","tails",100,"taifels"
"294",9,1857,"implied_prevalence","bare",23,"generic","red","scales",100,"blins"
"295",9,2137,"implied_prevalence","danger-distinct",24,"generic","yellow","fur",100,"ollers"
"296",9,1880,"implied_prevalence","nondistinctive",25,"generic","blue","scales",100,"reesles"
"297",9,5648,"implied_prevalence","nondistinctive",26,"generic","blue","teeth",100,"thups"
"298",9,1807,"implied_prevalence","bare",27,"generic","copper","stripes",100,"mooks"
"299",9,1984,"implied_prevalence","danger-distinct",28,"generic","copper","spots",100,"glippets"
"300",9,1552,"implied_prevalence","danger-distinct",29,"generic","red","feathers",100,"noobs"
"301",10,17255,"implied_prevalence","danger-distinct",0,"generic","silver","fur",100,"morseths"
"302",10,5191,"implied_prevalence","bare",1,"generic","gold","feathers",100,"plovs"
"303",10,8344,"implied_prevalence","nondistinctive",2,"generic","copper","fur",100,"kweps"
"304",10,7343,"implied_prevalence","nondistinctive",3,"generic","pink","ears",100,"elleps"
"305",10,5129,"implied_prevalence","bare",4,"generic","yellow","scales",100,"dorbs"
"306",10,6728,"implied_prevalence","nondistinctive",5,"generic","pink","teeth",100,"krivels"
"307",10,6368,"implied_prevalence","bare",6,"generic","yellow","fur",100,"ollers"
"308",10,9376,"implied_prevalence","nondistinctive",7,"generic","pink","legs",100,"feps"
"309",10,9152,"implied_prevalence","danger-distinct",8,"generic","purple","feathers",100,"lorches"
"310",10,7592,"implied_prevalence","danger-distinct",9,"generic","blue","scales",100,"reesles"
"311",10,6840,"implied_prevalence","nondistinctive",10,"generic","red","spots",100,"sapers"
"312",10,3624,"implied_prevalence","bare",11,"generic","purple","shells",100,"javs"
"313",10,7360,"implied_prevalence","danger-distinct",12,"generic","copper","stripes",100,"mooks"
"314",10,4448,"implied_prevalence","bare",13,"generic","blue","teeth",100,"thups"
"315",10,5608,"implied_prevalence","danger-distinct",14,"generic","green","shells",100,"moxes"
"316",10,6216,"implied_prevalence","danger-distinct",15,"generic","green","teeth",100,"zoovs"
"317",10,6824,"implied_prevalence","danger-distinct",16,"generic","purple","tails",100,"taifels"
"318",10,2983,"implied_prevalence","bare",17,"generic","orange","ears",100,"kazzes"
"319",10,7383,"implied_prevalence","danger-distinct",18,"generic","gold","spots",100,"stups"
"320",10,5447,"implied_prevalence","nondistinctive",19,"generic","orange","shells",100,"luzaks"
"321",10,3424,"implied_prevalence","bare",20,"generic","silver","legs",100,"ackles"
"322",10,6175,"implied_prevalence","danger-distinct",21,"generic","blue","ears",100,"cheebas"
"323",10,3111,"implied_prevalence","bare",22,"generic","orange","tails",100,"zorbs"
"324",10,5080,"implied_prevalence","nondistinctive",23,"generic","red","scales",100,"blins"
"325",10,5840,"implied_prevalence","nondistinctive",24,"generic","gold","stripes",100,"daiths"
"326",10,2472,"implied_prevalence","bare",25,"generic","silver","stripes",100,"frams"
"327",10,7064,"implied_prevalence","nondistinctive",26,"generic","green","tails",100,"trufts"
"328",10,7592,"implied_prevalence","danger-distinct",27,"generic","yellow","legs",100,"ludinos"
"329",10,6112,"implied_prevalence","nondistinctive",28,"generic","red","feathers",100,"noobs"
"330",10,3784,"implied_prevalence","bare",29,"generic","copper","spots",100,"glippets"
"331",11,16491,"implied_prevalence","nondistinctive",0,"generic","copper","fur",100,"kweps"
"332",11,5903,"implied_prevalence","bare",1,"generic","orange","ears",100,"kazzes"
"333",11,14063,"implied_prevalence","nondistinctive",2,"generic","gold","stripes",100,"daiths"
"334",11,4913,"implied_prevalence","bare",3,"generic","pink","teeth",100,"krivels"
"335",11,4960,"implied_prevalence","bare",4,"generic","silver","fur",100,"morseths"
"336",11,5006,"implied_prevalence","bare",5,"generic","purple","shells",100,"javs"
"337",11,10320,"implied_prevalence","danger-distinct",6,"generic","orange","tails",100,"zorbs"
"338",11,8648,"implied_prevalence","nondistinctive",7,"generic","gold","feathers",100,"plovs"
"339",11,6753,"implied_prevalence","danger-distinct",8,"generic","blue","teeth",100,"thups"
"340",11,7933,"implied_prevalence","nondistinctive",9,"generic","blue","ears",100,"cheebas"
"341",11,5697,"implied_prevalence","bare",10,"generic","silver","stripes",100,"frams"
"342",11,7829,"implied_prevalence","nondistinctive",11,"generic","copper","spots",100,"glippets"
"343",11,4990,"implied_prevalence","bare",12,"generic","purple","tails",100,"taifels"
"344",11,7363,"implied_prevalence","danger-distinct",13,"generic","blue","scales",100,"reesles"
"345",11,7453,"implied_prevalence","danger-distinct",14,"generic","orange","shells",100,"luzaks"
"346",11,4570,"implied_prevalence","nondistinctive",15,"generic","green","tails",100,"trufts"
"347",11,5660,"implied_prevalence","danger-distinct",16,"generic","purple","feathers",100,"lorches"
"348",11,10703,"implied_prevalence","nondistinctive",17,"generic","pink","legs",100,"feps"
"349",11,3693,"implied_prevalence","nondistinctive",18,"generic","green","teeth",100,"zoovs"
"350",11,7290,"implied_prevalence","danger-distinct",19,"generic","yellow","legs",100,"ludinos"
"351",11,7223,"implied_prevalence","danger-distinct",20,"generic","gold","spots",100,"stups"
"352",11,4070,"implied_prevalence","danger-distinct",21,"generic","copper","stripes",100,"mooks"
"353",11,2676,"implied_prevalence","danger-distinct",22,"generic","pink","ears",100,"elleps"
"354",11,3577,"implied_prevalence","bare",23,"generic","silver","legs",100,"ackles"
"355",11,4050,"implied_prevalence","bare",24,"generic","red","feathers",100,"noobs"
"356",11,5166,"implied_prevalence","nondistinctive",25,"generic","yellow","scales",100,"dorbs"
"357",11,4207,"implied_prevalence","bare",26,"generic","red","spots",100,"sapers"
"358",11,5766,"implied_prevalence","danger-distinct",27,"generic","yellow","fur",100,"ollers"
"359",11,3917,"implied_prevalence","bare",28,"generic","red","scales",100,"blins"
"360",11,3806,"implied_prevalence","nondistinctive",29,"generic","green","shells",100,"moxes"
"361",12,17282,"implied_prevalence","danger-distinct",0,"generic","red","scales",50,"blins"
"362",12,17700,"implied_prevalence","nondistinctive",1,"generic","copper","fur",100,"kweps"
"363",12,6832,"implied_prevalence","bare",2,"generic","yellow","fur",100,"ollers"
"364",12,6273,"implied_prevalence","bare",3,"generic","green","teeth",100,"zoovs"
"365",12,10603,"implied_prevalence","danger-distinct",4,"generic","purple","tails",100,"taifels"
"366",12,10979,"implied_prevalence","nondistinctive",5,"generic","orange","ears",100,"kazzes"
"367",12,9153,"implied_prevalence","danger-distinct",6,"generic","pink","teeth",50,"krivels"
"368",12,7838,"implied_prevalence","nondistinctive",7,"generic","green","tails",100,"trufts"
"369",12,5730,"implied_prevalence","bare",8,"generic","yellow","legs",100,"ludinos"
"370",12,4849,"implied_prevalence","danger-distinct",9,"generic","blue","ears",100,"cheebas"
"371",12,5878,"implied_prevalence","danger-distinct",10,"generic","gold","feathers",100,"plovs"
"372",12,4829,"implied_prevalence","nondistinctive",11,"generic","blue","scales",100,"reesles"
"373",12,4742,"implied_prevalence","danger-distinct",12,"generic","pink","legs",100,"feps"
"374",12,4217,"implied_prevalence","danger-distinct",13,"generic","purple","shells",100,"javs"
"375",12,4034,"implied_prevalence","nondistinctive",14,"generic","red","spots",100,"sapers"
"376",12,6823,"implied_prevalence","danger-distinct",15,"generic","silver","fur",100,"morseths"
"377",12,6849,"implied_prevalence","nondistinctive",16,"generic","red","feathers",100,"noobs"
"378",12,5812,"implied_prevalence","danger-distinct",17,"generic","copper","spots",100,"glippets"
"379",12,3468,"implied_prevalence","danger-distinct",18,"generic","silver","stripes",100,"frams"
"380",12,8415,"implied_prevalence","bare",19,"generic","orange","tails",100,"zorbs"
"381",12,3561,"implied_prevalence","bare",20,"generic","purple","feathers",100,"lorches"
"382",12,3369,"implied_prevalence","bare",21,"generic","green","shells",100,"moxes"
"383",12,3411,"implied_prevalence","bare",22,"generic","gold","stripes",100,"daiths"
"384",12,5624,"implied_prevalence","nondistinctive",23,"generic","blue","teeth",100,"thups"
"385",12,3248,"implied_prevalence","nondistinctive",24,"generic","orange","shells",100,"luzaks"
"386",12,3324,"implied_prevalence","nondistinctive",25,"generic","copper","stripes",100,"mooks"
"387",12,4104,"implied_prevalence","bare",26,"generic","yellow","scales",100,"dorbs"
"388",12,2881,"implied_prevalence","bare",27,"generic","gold","spots",100,"stups"
"389",12,3869,"implied_prevalence","nondistinctive",28,"generic","silver","legs",100,"ackles"
"390",12,4247,"implied_prevalence","bare",29,"generic","pink","ears",100,"elleps"
"391",13,6870,"implied_prevalence","bare",0,"generic","red","feathers",100,"noobs"
"392",13,3920,"implied_prevalence","bare",1,"generic","orange","tails",100,"zorbs"
"393",13,3487,"implied_prevalence","bare",2,"generic","red","scales",95,"blins"
"394",13,3241,"implied_prevalence","bare",3,"generic","copper","spots",100,"glippets"
"395",13,9384,"implied_prevalence","danger-distinct",4,"generic","blue","scales",100,"reesles"
"396",13,3344,"implied_prevalence","bare",5,"generic","gold","stripes",100,"daiths"
"397",13,5943,"implied_prevalence","nondistinctive",6,"generic","purple","tails",100,"taifels"
"398",13,4783,"implied_prevalence","nondistinctive",7,"generic","red","spots",100,"sapers"
"399",13,4337,"implied_prevalence","danger-distinct",8,"generic","green","tails",100,"trufts"
"400",13,3336,"implied_prevalence","bare",9,"generic","blue","ears",100,"cheebas"
"401",13,5658,"implied_prevalence","danger-distinct",10,"generic","yellow","fur",100,"ollers"
"402",13,4645,"implied_prevalence","nondistinctive",11,"generic","copper","stripes",100,"mooks"
"403",13,6161,"implied_prevalence","danger-distinct",12,"generic","silver","stripes",100,"frams"
"404",13,13183,"implied_prevalence","nondistinctive",13,"generic","silver","legs",75,"ackles"
"405",13,3337,"implied_prevalence","nondistinctive",14,"generic","orange","ears",75,"kazzes"
"406",13,4352,"implied_prevalence","danger-distinct",15,"generic","purple","feathers",100,"lorches"
"407",13,3304,"implied_prevalence","nondistinctive",16,"generic","silver","fur",75,"morseths"
"408",13,3423,"implied_prevalence","bare",17,"generic","green","teeth",100,"zoovs"
"409",13,8185,"implied_prevalence","nondistinctive",18,"generic","gold","feathers",85,"plovs"
"410",13,3008,"implied_prevalence","bare",19,"generic","pink","legs",100,"feps"
"411",13,2711,"implied_prevalence","nondistinctive",20,"generic","pink","teeth",100,"krivels"
"412",13,2712,"implied_prevalence","nondistinctive",21,"generic","orange","shells",100,"luzaks"
"413",13,2535,"implied_prevalence","danger-distinct",22,"generic","pink","ears",100,"elleps"
"414",13,2344,"implied_prevalence","nondistinctive",23,"generic","yellow","scales",100,"dorbs"
"415",13,2392,"implied_prevalence","danger-distinct",24,"generic","blue","teeth",100,"thups"
"416",13,2440,"implied_prevalence","danger-distinct",25,"generic","purple","shells",100,"javs"
"417",13,7735,"implied_prevalence","danger-distinct",26,"generic","gold","spots",100,"stups"
"418",13,3816,"implied_prevalence","bare",27,"generic","copper","fur",100,"kweps"
"419",13,6288,"implied_prevalence","bare",28,"generic","green","shells",95,"moxes"
"420",13,3249,"implied_prevalence","danger-distinct",29,"generic","yellow","legs",100,"ludinos"
"421",14,16116,"implied_prevalence","nondistinctive",0,"generic","orange","ears",100,"kazzes"
"422",14,5871,"implied_prevalence","bare",1,"generic","red","feathers",100,"noobs"
"423",14,4848,"implied_prevalence","bare",2,"generic","gold","stripes",100,"daiths"
"424",14,9768,"implied_prevalence","nondistinctive",3,"generic","copper","stripes",100,"mooks"
"425",14,8687,"implied_prevalence","nondistinctive",4,"generic","green","teeth",100,"zoovs"
"426",14,13702,"implied_prevalence","danger-distinct",5,"generic","silver","stripes",100,"frams"
"427",14,9752,"implied_prevalence","danger-distinct",6,"generic","green","shells",100,"moxes"
"428",14,6024,"implied_prevalence","bare",7,"generic","copper","fur",100,"kweps"
"429",14,4416,"implied_prevalence","bare",8,"generic","pink","ears",100,"elleps"
"430",14,9031,"implied_prevalence","nondistinctive",9,"generic","copper","spots",100,"glippets"
"431",14,11168,"implied_prevalence","nondistinctive",10,"generic","purple","feathers",100,"lorches"
"432",14,3998,"implied_prevalence","bare",11,"generic","orange","shells",100,"luzaks"
"433",14,9704,"implied_prevalence","danger-distinct",12,"generic","yellow","fur",100,"ollers"
"434",14,5143,"implied_prevalence","nondistinctive",13,"generic","green","tails",100,"trufts"
"435",14,7400,"implied_prevalence","danger-distinct",14,"generic","silver","legs",100,"ackles"
"436",14,4511,"implied_prevalence","nondistinctive",15,"generic","yellow","scales",100,"dorbs"
"437",14,4855,"implied_prevalence","bare",16,"generic","red","scales",100,"blins"
"438",14,5225,"implied_prevalence","danger-distinct",17,"generic","blue","ears",100,"cheebas"
"439",14,5176,"implied_prevalence","danger-distinct",18,"generic","blue","scales",100,"reesles"
"440",14,5703,"implied_prevalence","danger-distinct",19,"generic","orange","tails",100,"zorbs"
"441",14,4744,"implied_prevalence","bare",20,"generic","purple","tails",100,"taifels"
"442",14,3720,"implied_prevalence","bare",21,"generic","blue","teeth",100,"thups"
"443",14,7112,"implied_prevalence","nondistinctive",22,"generic","yellow","legs",100,"ludinos"
"444",14,5440,"implied_prevalence","nondistinctive",23,"generic","purple","shells",100,"javs"
"445",14,4856,"implied_prevalence","bare",24,"generic","gold","spots",100,"stups"
"446",14,5599,"implied_prevalence","danger-distinct",25,"generic","red","spots",100,"sapers"
"447",14,4777,"implied_prevalence","bare",26,"generic","pink","legs",100,"feps"
"448",14,4351,"implied_prevalence","danger-distinct",27,"generic","pink","teeth",100,"krivels"
"449",14,4824,"implied_prevalence","danger-distinct",28,"generic","gold","feathers",100,"plovs"
"450",14,4039,"implied_prevalence","nondistinctive",29,"generic","silver","fur",100,"morseths"
"451",15,28000,"implied_prevalence","danger-distinct",0,"generic","silver","stripes",100,"frams"
"452",15,39512,"implied_prevalence","danger-distinct",1,"generic","purple","feathers",100,"lorches"
"453",15,23502,"implied_prevalence","nondistinctive",2,"generic","red","feathers",100,"noobs"
"454",15,23526,"implied_prevalence","nondistinctive",3,"generic","orange","shells",100,"luzaks"
"455",15,17155,"implied_prevalence","danger-distinct",4,"generic","yellow","scales",100,"dorbs"
"456",15,18508,"implied_prevalence","nondistinctive",5,"generic","copper","spots",100,"glippets"
"457",15,8496,"implied_prevalence","nondistinctive",6,"generic","blue","teeth",100,"thups"
"458",15,5557,"implied_prevalence","nondistinctive",7,"generic","gold","stripes",100,"daiths"
"459",15,8324,"implied_prevalence","nondistinctive",8,"generic","yellow","legs",100,"ludinos"
"460",15,5458,"implied_prevalence","nondistinctive",9,"generic","blue","scales",100,"reesles"
"461",15,6874,"implied_prevalence","bare",10,"generic","pink","ears",100,"elleps"
"462",15,7335,"implied_prevalence","nondistinctive",11,"generic","blue","ears",100,"cheebas"
"463",15,5375,"implied_prevalence","bare",12,"generic","gold","spots",100,"stups"
"464",15,4006,"implied_prevalence","bare",13,"generic","copper","stripes",100,"mooks"
"465",15,3164,"implied_prevalence","bare",14,"generic","pink","teeth",100,"krivels"
"466",15,8840,"implied_prevalence","danger-distinct",15,"generic","purple","tails",100,"taifels"
"467",15,3137,"implied_prevalence","bare",16,"generic","silver","fur",100,"morseths"
"468",15,7209,"implied_prevalence","danger-distinct",17,"generic","red","spots",100,"sapers"
"469",15,3666,"implied_prevalence","nondistinctive",18,"generic","green","tails",100,"trufts"
"470",15,6393,"implied_prevalence","danger-distinct",19,"generic","green","teeth",100,"zoovs"
"471",15,7092,"implied_prevalence","bare",20,"generic","red","scales",100,"blins"
"472",15,3467,"implied_prevalence","danger-distinct",21,"generic","purple","shells",100,"javs"
"473",15,4876,"implied_prevalence","danger-distinct",22,"generic","yellow","fur",100,"ollers"
"474",15,3902,"implied_prevalence","bare",23,"generic","green","shells",100,"moxes"
"475",15,3473,"implied_prevalence","bare",24,"generic","gold","feathers",100,"plovs"
"476",15,3238,"implied_prevalence","bare",25,"generic","orange","tails",100,"zorbs"
"477",15,3161,"implied_prevalence","bare",26,"generic","silver","legs",100,"ackles"
"478",15,5679,"implied_prevalence","danger-distinct",27,"generic","orange","ears",100,"kazzes"
"479",15,2939,"implied_prevalence","nondistinctive",28,"generic","copper","fur",100,"kweps"
"480",15,2858,"implied_prevalence","danger-distinct",29,"generic","pink","legs",100,"feps"
"481",16,15462,"implied_prevalence","bare",0,"generic","gold","stripes",60,"daiths"
"482",16,11615,"implied_prevalence","danger-distinct",1,"generic","yellow","scales",30,"dorbs"
"483",16,9709,"implied_prevalence","nondistinctive",2,"generic","green","shells",90,"moxes"
"484",16,6370,"implied_prevalence","bare",3,"generic","copper","spots",80,"glippets"
"485",16,5796,"implied_prevalence","bare",4,"generic","green","tails",90,"trufts"
"486",16,5251,"implied_prevalence","bare",5,"generic","blue","scales",80,"reesles"
"487",16,8740,"implied_prevalence","nondistinctive",6,"generic","yellow","fur",90,"ollers"
"488",16,7687,"implied_prevalence","danger-distinct",7,"generic","orange","tails",30,"zorbs"
"489",16,6536,"implied_prevalence","nondistinctive",8,"generic","silver","stripes",80,"frams"
"490",16,11641,"implied_prevalence","nondistinctive",9,"generic","pink","teeth",90,"krivels"
"491",16,11657,"implied_prevalence","danger-distinct",10,"generic","gold","spots",20,"stups"
"492",16,6733,"implied_prevalence","danger-distinct",11,"generic","blue","ears",20,"cheebas"
"493",16,12693,"implied_prevalence","bare",12,"generic","purple","feathers",80,"lorches"
"494",16,7504,"implied_prevalence","nondistinctive",13,"generic","pink","legs",90,"feps"
"495",16,6057,"implied_prevalence","bare",14,"generic","silver","fur",80,"morseths"
"496",16,4973,"implied_prevalence","nondistinctive",15,"generic","red","scales",90,"blins"
"497",16,12077,"implied_prevalence","nondistinctive",16,"generic","gold","feathers",90,"plovs"
"498",16,7762,"implied_prevalence","nondistinctive",17,"generic","purple","tails",90,"taifels"
"499",16,8762,"implied_prevalence","bare",18,"generic","purple","shells",80,"javs"
"500",16,8335,"implied_prevalence","danger-distinct",19,"generic","copper","fur",20,"kweps"
"501",16,5656,"implied_prevalence","nondistinctive",20,"generic","pink","ears",90,"elleps"
"502",16,6801,"implied_prevalence","danger-distinct",21,"generic","green","teeth",20,"zoovs"
"503",16,7918,"implied_prevalence","danger-distinct",22,"generic","orange","shells",20,"luzaks"
"504",16,15089,"implied_prevalence","danger-distinct",23,"generic","silver","legs",20,"ackles"
"505",16,5994,"implied_prevalence","danger-distinct",24,"generic","copper","stripes",20,"mooks"
"506",16,9910,"implied_prevalence","bare",25,"generic","orange","ears",80,"kazzes"
"507",16,5266,"implied_prevalence","danger-distinct",26,"generic","red","feathers",20,"noobs"
"508",16,5435,"implied_prevalence","bare",27,"generic","yellow","legs",80,"ludinos"
"509",16,6119,"implied_prevalence","nondistinctive",28,"generic","red","spots",90,"sapers"
"510",16,8526,"implied_prevalence","bare",29,"generic","blue","teeth",80,"thups"
"511",17,7850,"implied_prevalence","danger-distinct",0,"generic","orange","tails",100,"zorbs"
"512",17,6017,"implied_prevalence","danger-distinct",1,"generic","silver","stripes",100,"frams"
"513",17,5139,"implied_prevalence","danger-distinct",2,"generic","green","shells",100,"moxes"
"514",17,5610,"implied_prevalence","nondistinctive",3,"generic","pink","teeth",75,"krivels"
"515",17,5969,"implied_prevalence","danger-distinct",4,"generic","green","teeth",100,"zoovs"
"516",17,5403,"implied_prevalence","danger-distinct",5,"generic","pink","ears",100,"elleps"
"517",17,3676,"implied_prevalence","bare",6,"generic","gold","spots",100,"stups"
"518",17,2291,"implied_prevalence","bare",7,"generic","purple","shells",100,"javs"
"519",17,7841,"implied_prevalence","nondistinctive",8,"generic","copper","spots",100,"glippets"
"520",17,8358,"implied_prevalence","bare",9,"generic","pink","legs",80,"feps"
"521",17,8450,"implied_prevalence","nondistinctive",10,"generic","red","scales",80,"blins"
"522",17,3179,"implied_prevalence","nondistinctive",11,"generic","yellow","legs",90,"ludinos"
"523",17,2470,"implied_prevalence","bare",12,"generic","gold","feathers",100,"plovs"
"524",17,2084,"implied_prevalence","bare",13,"generic","blue","ears",100,"cheebas"
"525",17,2994,"implied_prevalence","nondistinctive",14,"generic","copper","stripes",100,"mooks"
"526",17,3090,"implied_prevalence","bare",15,"generic","silver","fur",80,"morseths"
"527",17,2756,"implied_prevalence","bare",16,"generic","gold","stripes",90,"daiths"
"528",17,2878,"implied_prevalence","bare",17,"generic","yellow","scales",90,"dorbs"
"529",17,6787,"implied_prevalence","nondistinctive",18,"generic","orange","ears",100,"kazzes"
"530",17,2730,"implied_prevalence","danger-distinct",19,"generic","blue","scales",100,"reesles"
"531",17,3025,"implied_prevalence","danger-distinct",20,"generic","purple","feathers",100,"lorches"
"532",17,2296,"implied_prevalence","bare",21,"generic","blue","teeth",100,"thups"
"533",17,2833,"implied_prevalence","danger-distinct",22,"generic","silver","legs",100,"ackles"
"534",17,6346,"implied_prevalence","nondistinctive",23,"generic","red","feathers",85,"noobs"
"535",17,2587,"implied_prevalence","danger-distinct",24,"generic","red","spots",100,"sapers"
"536",17,3581,"implied_prevalence","nondistinctive",25,"generic","orange","shells",100,"luzaks"
"537",17,3298,"implied_prevalence","danger-distinct",26,"generic","copper","fur",100,"kweps"
"538",17,2311,"implied_prevalence","bare",27,"generic","purple","tails",90,"taifels"
"539",17,3758,"implied_prevalence","nondistinctive",28,"generic","yellow","fur",90,"ollers"
"540",17,3042,"implied_prevalence","nondistinctive",29,"generic","green","tails",90,"trufts"
"541",18,7237,"implied_prevalence","bare",0,"generic","copper","fur",100,"kweps"
"542",18,12713,"implied_prevalence","danger-distinct",1,"generic","green","shells",100,"moxes"
"543",18,9618,"implied_prevalence","nondistinctive",2,"generic","purple","shells",100,"javs"
"544",18,8044,"implied_prevalence","nondistinctive",3,"generic","purple","feathers",100,"lorches"
"545",18,4237,"implied_prevalence","bare",4,"generic","red","feathers",100,"noobs"
"546",18,6017,"implied_prevalence","nondistinctive",5,"generic","yellow","fur",100,"ollers"
"547",18,5594,"implied_prevalence","nondistinctive",6,"generic","red","spots",100,"sapers"
"548",18,5715,"implied_prevalence","nondistinctive",7,"generic","red","scales",100,"blins"
"549",18,10021,"implied_prevalence","nondistinctive",8,"generic","green","tails",100,"trufts"
"550",18,9666,"implied_prevalence","nondistinctive",9,"generic","silver","legs",100,"ackles"
"551",18,6233,"implied_prevalence","danger-distinct",10,"generic","green","teeth",100,"zoovs"
"552",18,6184,"implied_prevalence","danger-distinct",11,"generic","copper","stripes",100,"mooks"
"553",18,6717,"implied_prevalence","danger-distinct",12,"generic","yellow","legs",100,"ludinos"
"554",18,5784,"implied_prevalence","danger-distinct",13,"generic","blue","ears",100,"cheebas"
"555",18,3624,"implied_prevalence","bare",14,"generic","orange","tails",100,"zorbs"
"556",18,6712,"implied_prevalence","danger-distinct",15,"generic","purple","tails",100,"taifels"
"557",18,3502,"implied_prevalence","nondistinctive",16,"generic","pink","teeth",100,"krivels"
"558",18,3596,"implied_prevalence","bare",17,"generic","pink","ears",100,"elleps"
"559",18,3271,"implied_prevalence","bare",18,"generic","blue","scales",100,"reesles"
"560",18,9335,"implied_prevalence","danger-distinct",19,"generic","silver","fur",100,"morseths"
"561",18,9362,"implied_prevalence","nondistinctive",20,"generic","silver","stripes",100,"frams"
"562",18,3058,"implied_prevalence","bare",21,"generic","gold","stripes",100,"daiths"
"563",18,3731,"implied_prevalence","bare",22,"generic","orange","shells",100,"luzaks"
"564",18,4387,"implied_prevalence","nondistinctive",23,"generic","orange","ears",100,"kazzes"
"565",18,6487,"implied_prevalence","bare",24,"generic","blue","teeth",100,"thups"
"566",18,5194,"implied_prevalence","danger-distinct",25,"generic","yellow","scales",100,"dorbs"
"567",18,3720,"implied_prevalence","bare",26,"generic","copper","spots",100,"glippets"
"568",18,7329,"implied_prevalence","danger-distinct",27,"generic","gold","feathers",100,"plovs"
"569",18,3240,"implied_prevalence","bare",28,"generic","pink","legs",100,"feps"
"570",18,5635,"implied_prevalence","danger-distinct",29,"generic","gold","spots",100,"stups"
"571",19,23965,"implied_prevalence","nondistinctive",0,"generic","silver","fur",50,"morseths"
"572",19,8742,"implied_prevalence","bare",1,"generic","blue","scales",100,"reesles"
"573",19,9686,"implied_prevalence","nondistinctive",2,"generic","pink","ears",30,"elleps"
"574",19,20704,"implied_prevalence","nondistinctive",3,"generic","gold","feathers",30,"plovs"
"575",19,12939,"implied_prevalence","bare",4,"generic","purple","feathers",100,"lorches"
"576",19,9703,"implied_prevalence","nondistinctive",5,"generic","red","scales",30,"blins"
"577",19,14042,"implied_prevalence","danger-distinct",6,"generic","yellow","scales",100,"dorbs"
"578",19,7416,"implied_prevalence","bare",7,"generic","yellow","legs",100,"ludinos"
"579",19,6383,"implied_prevalence","nondistinctive",8,"generic","copper","stripes",30,"mooks"
"580",19,9281,"implied_prevalence","nondistinctive",9,"generic","purple","tails",30,"taifels"
"581",19,5791,"implied_prevalence","nondistinctive",10,"generic","green","shells",30,"moxes"
"582",19,13562,"implied_prevalence","danger-distinct",11,"generic","red","feathers",100,"noobs"
"583",19,7704,"implied_prevalence","danger-distinct",12,"generic","blue","ears",100,"cheebas"
"584",19,5351,"implied_prevalence","bare",13,"generic","orange","ears",100,"kazzes"
"585",19,4384,"implied_prevalence","bare",14,"generic","copper","spots",100,"glippets"
"586",19,5464,"implied_prevalence","bare",15,"generic","gold","stripes",100,"daiths"
"587",19,9761,"implied_prevalence","danger-distinct",16,"generic","pink","teeth",100,"krivels"
"588",19,5200,"implied_prevalence","bare",17,"generic","blue","teeth",100,"thups"
"589",19,6096,"implied_prevalence","danger-distinct",18,"generic","purple","shells",100,"javs"
"590",19,3815,"implied_prevalence","bare",19,"generic","orange","tails",100,"zorbs"
"591",19,5713,"implied_prevalence","danger-distinct",20,"generic","green","tails",100,"trufts"
"592",19,5128,"implied_prevalence","danger-distinct",21,"generic","yellow","fur",100,"ollers"
"593",19,4311,"implied_prevalence","bare",22,"generic","copper","fur",100,"kweps"
"594",19,7729,"implied_prevalence","danger-distinct",23,"generic","silver","stripes",100,"frams"
"595",19,5136,"implied_prevalence","danger-distinct",24,"generic","pink","legs",100,"feps"
"596",19,7105,"implied_prevalence","nondistinctive",25,"generic","gold","spots",30,"stups"
"597",19,3600,"implied_prevalence","bare",26,"generic","orange","shells",100,"luzaks"
"598",19,6527,"implied_prevalence","nondistinctive",27,"generic","green","teeth",50,"zoovs"
"599",19,11473,"implied_prevalence","nondistinctive",28,"generic","silver","legs",50,"ackles"
"600",19,6400,"implied_prevalence","danger-distinct",29,"generic","red","spots",100,"sapers"
"601",20,19951,"implied_prevalence","danger-distinct",0,"generic","green","teeth",100,"zoovs"
"602",20,17152,"implied_prevalence","danger-distinct",1,"generic","orange","ears",100,"kazzes"
"603",20,19963,"implied_prevalence","nondistinctive",2,"generic","gold","spots",100,"stups"
"604",20,14840,"implied_prevalence","danger-distinct",3,"generic","purple","tails",100,"taifels"
"605",20,13383,"implied_prevalence","nondistinctive",4,"generic","blue","scales",100,"reesles"
"606",20,10751,"implied_prevalence","nondistinctive",5,"generic","green","shells",100,"moxes"
"607",20,13101,"implied_prevalence","nondistinctive",6,"generic","gold","feathers",100,"plovs"
"608",20,6864,"implied_prevalence","bare",7,"generic","orange","tails",100,"zorbs"
"609",20,7979,"implied_prevalence","bare",8,"generic","copper","stripes",100,"mooks"
"610",20,6837,"implied_prevalence","bare",9,"generic","purple","shells",100,"javs"
"611",20,12904,"implied_prevalence","nondistinctive",10,"generic","silver","stripes",100,"frams"
"612",20,11514,"implied_prevalence","danger-distinct",11,"generic","red","spots",100,"sapers"
"613",20,13119,"implied_prevalence","danger-distinct",12,"generic","gold","stripes",100,"daiths"
"614",20,9267,"implied_prevalence","nondistinctive",13,"generic","green","tails",100,"trufts"
"615",20,7014,"implied_prevalence","bare",14,"generic","yellow","fur",100,"ollers"
"616",20,14566,"implied_prevalence","danger-distinct",15,"generic","pink","legs",100,"feps"
"617",20,11317,"implied_prevalence","danger-distinct",16,"generic","orange","shells",100,"luzaks"
"618",20,11104,"implied_prevalence","danger-distinct",17,"generic","silver","fur",100,"morseths"
"619",20,12398,"implied_prevalence","bare",18,"generic","copper","spots",90,"glippets"
"620",20,12798,"implied_prevalence","danger-distinct",19,"generic","purple","feathers",100,"lorches"
"621",20,13834,"implied_prevalence","bare",20,"generic","blue","ears",99,"cheebas"
"622",20,8253,"implied_prevalence","nondistinctive",21,"generic","pink","ears",100,"elleps"
"623",20,10580,"implied_prevalence","nondistinctive",22,"generic","copper","fur",100,"kweps"
"624",20,5703,"implied_prevalence","bare",23,"generic","red","scales",100,"blins"
"625",20,5515,"implied_prevalence","bare",24,"generic","red","feathers",100,"noobs"
"626",20,9684,"implied_prevalence","danger-distinct",25,"generic","yellow","scales",100,"dorbs"
"627",20,8933,"implied_prevalence","nondistinctive",26,"generic","yellow","legs",100,"ludinos"
"628",20,7670,"implied_prevalence","bare",27,"generic","silver","legs",100,"ackles"
"629",20,8500,"implied_prevalence","nondistinctive",28,"generic","pink","teeth",100,"krivels"
"630",20,7633,"implied_prevalence","bare",29,"generic","blue","teeth",100,"thups"
"631",21,5150,"implied_prevalence","bare",0,"generic","pink","ears",100,"elleps"
"632",21,9126,"implied_prevalence","nondistinctive",1,"generic","green","teeth",75,"zoovs"
"633",21,4298,"implied_prevalence","bare",2,"generic","green","shells",80,"moxes"
"634",21,2352,"implied_prevalence","danger-distinct",3,"generic","silver","legs",90,"ackles"
"635",21,985,"implied_prevalence","danger-distinct",4,"generic","copper","spots",90,"glippets"
"636",21,797,"implied_prevalence","nondistinctive",5,"generic","blue","scales",90,"reesles"
"637",21,1028,"implied_prevalence","danger-distinct",6,"generic","gold","stripes",90,"daiths"
"638",21,2436,"implied_prevalence","danger-distinct",7,"generic","pink","teeth",80,"krivels"
"639",21,860,"implied_prevalence","nondistinctive",8,"generic","purple","shells",80,"javs"
"640",21,1047,"implied_prevalence","nondistinctive",9,"generic","yellow","legs",80,"ludinos"
"641",21,844,"implied_prevalence","nondistinctive",10,"generic","blue","ears",80,"cheebas"
"642",21,1187,"implied_prevalence","danger-distinct",11,"generic","purple","feathers",80,"lorches"
"643",21,2175,"implied_prevalence","danger-distinct",12,"generic","copper","fur",75,"kweps"
"644",21,2961,"implied_prevalence","nondistinctive",13,"generic","red","spots",75,"sapers"
"645",21,2487,"implied_prevalence","bare",14,"generic","pink","legs",80,"feps"
"646",21,2648,"implied_prevalence","bare",15,"generic","purple","tails",90,"taifels"
"647",21,1056,"implied_prevalence","bare",16,"generic","copper","stripes",90,"mooks"
"648",21,982,"implied_prevalence","danger-distinct",17,"generic","orange","shells",90,"luzaks"
"649",21,2635,"implied_prevalence","bare",18,"generic","yellow","scales",60,"dorbs"
"650",21,49083,"implied_prevalence","danger-distinct",19,"generic","orange","ears",20,"kazzes"
"651",21,2327,"implied_prevalence","bare",20,"generic","gold","feathers",80,"plovs"
"652",21,929,"implied_prevalence","danger-distinct",21,"generic","red","scales",80,"blins"
"653",21,828,"implied_prevalence","bare",22,"generic","blue","teeth",80,"thups"
"654",21,687,"implied_prevalence","bare",23,"generic","yellow","fur",80,"ollers"
"655",21,1196,"implied_prevalence","nondistinctive",24,"generic","orange","tails",80,"zorbs"
"656",21,882,"implied_prevalence","nondistinctive",25,"generic","red","feathers",80,"noobs"
"657",21,743,"implied_prevalence","nondistinctive",26,"generic","silver","stripes",80,"frams"
"658",21,762,"implied_prevalence","danger-distinct",27,"generic","green","tails",80,"trufts"
"659",21,973,"implied_prevalence","bare",28,"generic","gold","spots",80,"stups"
"660",21,2184,"implied_prevalence","nondistinctive",29,"generic","silver","fur",90,"morseths"
"661",22,16253,"implied_prevalence","danger-distinct",0,"generic","red","scales",20,"blins"
"662",22,8449,"implied_prevalence","bare",1,"generic","blue","scales",80,"reesles"
"663",22,58597,"implied_prevalence","nondistinctive",2,"generic","silver","legs",40,"ackles"
"664",22,6116,"implied_prevalence","bare",3,"generic","green","shells",10,"moxes"
"665",22,32268,"implied_prevalence","danger-distinct",4,"generic","silver","stripes",25,"frams"
"666",22,15499,"implied_prevalence","nondistinctive",5,"generic","gold","stripes",78,"daiths"
"667",22,1950,"implied_prevalence","danger-distinct",6,"generic","yellow","legs",54,"ludinos"
"668",22,2385,"implied_prevalence","danger-distinct",7,"generic","orange","tails",43,"zorbs"
"669",22,1681,"implied_prevalence","nondistinctive",8,"generic","purple","tails",32,"taifels"
"670",22,6984,"implied_prevalence","nondistinctive",9,"generic","copper","fur",70,"kweps"
"671",22,4765,"implied_prevalence","bare",10,"generic","green","tails",12,"trufts"
"672",22,4855,"implied_prevalence","nondistinctive",11,"generic","pink","ears",70,"elleps"
"673",22,30373,"implied_prevalence","nondistinctive",12,"generic","red","spots",15,"sapers"
"674",22,6385,"implied_prevalence","danger-distinct",13,"generic","orange","shells",1,"luzaks"
"675",22,10252,"implied_prevalence","danger-distinct",14,"generic","yellow","fur",31,"ollers"
"676",22,2117,"implied_prevalence","danger-distinct",15,"generic","blue","teeth",21,"thups"
"677",22,23578,"implied_prevalence","bare",16,"generic","silver","fur",15,"morseths"
"678",22,17318,"implied_prevalence","bare",17,"generic","copper","stripes",30,"mooks"
"679",22,2019,"implied_prevalence","nondistinctive",18,"generic","pink","teeth",21,"krivels"
"680",22,3271,"implied_prevalence","danger-distinct",19,"generic","copper","spots",26,"glippets"
"681",22,1511,"implied_prevalence","nondistinctive",20,"generic","purple","shells",34,"javs"
"682",22,2366,"implied_prevalence","bare",21,"generic","green","teeth",21,"zoovs"
"683",22,6318,"implied_prevalence","bare",22,"generic","pink","legs",100,"feps"
"684",22,8969,"implied_prevalence","danger-distinct",23,"generic","orange","ears",10,"kazzes"
"685",22,2548,"implied_prevalence","danger-distinct",24,"generic","gold","feathers",21,"plovs"
"686",22,2670,"implied_prevalence","bare",25,"generic","purple","feathers",65,"lorches"
"687",22,3380,"implied_prevalence","bare",26,"generic","blue","ears",100,"cheebas"
"688",22,4600,"implied_prevalence","bare",27,"generic","gold","spots",100,"stups"
"689",22,6003,"implied_prevalence","nondistinctive",28,"generic","yellow","scales",55,"dorbs"
"690",22,8260,"implied_prevalence","nondistinctive",29,"generic","red","feathers",100,"noobs"
"691",23,13448,"implied_prevalence","nondistinctive",0,"generic","blue","ears",100,"cheebas"
"692",23,6674,"implied_prevalence","bare",1,"generic","yellow","fur",100,"ollers"
"693",23,10155,"implied_prevalence","danger-distinct",2,"generic","purple","tails",100,"taifels"
"694",23,5634,"implied_prevalence","danger-distinct",3,"generic","pink","teeth",100,"krivels"
"695",23,4056,"implied_prevalence","bare",4,"generic","red","feathers",100,"noobs"
"696",23,3831,"implied_prevalence","nondistinctive",5,"generic","blue","teeth",100,"thups"
"697",23,3533,"implied_prevalence","bare",6,"generic","red","scales",100,"blins"
"698",23,3734,"implied_prevalence","bare",7,"generic","orange","shells",100,"luzaks"
"699",23,3319,"implied_prevalence","bare",8,"generic","copper","stripes",100,"mooks"
"700",23,6843,"implied_prevalence","danger-distinct",9,"generic","purple","feathers",100,"lorches"
"701",23,4599,"implied_prevalence","danger-distinct",10,"generic","red","spots",100,"sapers"
"702",23,3034,"implied_prevalence","nondistinctive",11,"generic","orange","tails",100,"zorbs"
"703",23,2931,"implied_prevalence","bare",12,"generic","silver","legs",100,"ackles"
"704",23,5752,"implied_prevalence","bare",13,"generic","gold","spots",100,"stups"
"705",23,2402,"implied_prevalence","danger-distinct",14,"generic","pink","ears",100,"elleps"
"706",23,2212,"implied_prevalence","bare",15,"generic","orange","ears",100,"kazzes"
"707",23,2459,"implied_prevalence","danger-distinct",16,"generic","silver","fur",100,"morseths"
"708",23,5264,"implied_prevalence","danger-distinct",17,"generic","purple","shells",100,"javs"
"709",23,3130,"implied_prevalence","nondistinctive",18,"generic","silver","stripes",100,"frams"
"710",23,3104,"implied_prevalence","danger-distinct",19,"generic","yellow","scales",100,"dorbs"
"711",23,2191,"implied_prevalence","danger-distinct",20,"generic","gold","stripes",100,"daiths"
"712",23,2479,"implied_prevalence","nondistinctive",21,"generic","copper","fur",100,"kweps"
"713",23,2372,"implied_prevalence","danger-distinct",22,"generic","yellow","legs",100,"ludinos"
"714",23,1986,"implied_prevalence","nondistinctive",23,"generic","gold","feathers",100,"plovs"
"715",23,2095,"implied_prevalence","bare",24,"generic","green","teeth",100,"zoovs"
"716",23,2842,"implied_prevalence","nondistinctive",25,"generic","blue","scales",100,"reesles"
"717",23,2508,"implied_prevalence","bare",26,"generic","green","tails",100,"trufts"
"718",23,2003,"implied_prevalence","nondistinctive",27,"generic","copper","spots",100,"glippets"
"719",23,2338,"implied_prevalence","nondistinctive",28,"generic","pink","legs",100,"feps"
"720",23,1921,"implied_prevalence","nondistinctive",29,"generic","green","shells",100,"moxes"
"721",24,8048,"implied_prevalence","bare",0,"generic","gold","stripes",100,"daiths"
"722",24,18751,"implied_prevalence","nondistinctive",1,"generic","orange","ears",100,"kazzes"
"723",24,19344,"implied_prevalence","danger-distinct",2,"generic","copper","stripes",100,"mooks"
"724",24,10984,"implied_prevalence","nondistinctive",3,"generic","yellow","fur",100,"ollers"
"725",24,16047,"implied_prevalence","danger-distinct",4,"generic","gold","feathers",100,"plovs"
"726",24,10865,"implied_prevalence","bare",5,"generic","blue","teeth",100,"thups"
"727",24,10663,"implied_prevalence","danger-distinct",6,"generic","pink","teeth",100,"krivels"
"728",24,7521,"implied_prevalence","bare",7,"generic","silver","fur",100,"morseths"
"729",24,11335,"implied_prevalence","nondistinctive",8,"generic","silver","stripes",100,"frams"
"730",24,11615,"implied_prevalence","nondistinctive",9,"generic","pink","legs",100,"feps"
"731",24,10465,"implied_prevalence","danger-distinct",10,"generic","green","shells",100,"moxes"
"732",24,11768,"implied_prevalence","danger-distinct",11,"generic","copper","fur",100,"kweps"
"733",24,10279,"implied_prevalence","bare",12,"generic","copper","spots",100,"glippets"
"734",24,6952,"implied_prevalence","bare",13,"generic","yellow","scales",100,"dorbs"
"735",24,10256,"implied_prevalence","nondistinctive",14,"generic","purple","feathers",100,"lorches"
"736",24,11080,"implied_prevalence","nondistinctive",15,"generic","blue","scales",100,"reesles"
"737",24,9160,"implied_prevalence","danger-distinct",16,"generic","red","scales",100,"blins"
"738",24,10520,"implied_prevalence","danger-distinct",17,"generic","green","tails",100,"trufts"
"739",24,8568,"implied_prevalence","bare",18,"generic","yellow","legs",100,"ludinos"
"740",24,7680,"implied_prevalence","nondistinctive",19,"generic","orange","shells",100,"luzaks"
"741",24,6424,"implied_prevalence","bare",20,"generic","purple","shells",100,"javs"
"742",24,11567,"implied_prevalence","danger-distinct",21,"generic","silver","legs",100,"ackles"
"743",24,6712,"implied_prevalence","nondistinctive",22,"generic","orange","tails",100,"zorbs"
"744",24,10151,"implied_prevalence","nondistinctive",23,"generic","green","teeth",100,"zoovs"
"745",24,10192,"implied_prevalence","danger-distinct",24,"generic","gold","spots",100,"stups"
"746",24,7168,"implied_prevalence","bare",25,"generic","purple","tails",100,"taifels"
"747",24,6047,"implied_prevalence","bare",26,"generic","pink","ears",100,"elleps"
"748",24,6704,"implied_prevalence","bare",27,"generic","red","feathers",100,"noobs"
"749",24,9273,"implied_prevalence","nondistinctive",28,"generic","red","spots",100,"sapers"
"750",24,8383,"implied_prevalence","danger-distinct",29,"generic","blue","ears",100,"cheebas"
"751",25,13296,"implied_prevalence","danger-distinct",0,"generic","orange","ears",100,"kazzes"
"752",25,7039,"implied_prevalence","danger-distinct",1,"generic","green","tails",100,"trufts"
"753",25,4135,"implied_prevalence","bare",2,"generic","green","teeth",100,"zoovs"
"754",25,7264,"implied_prevalence","nondistinctive",3,"generic","red","spots",100,"sapers"
"755",25,8568,"implied_prevalence","danger-distinct",4,"generic","yellow","fur",100,"ollers"
"756",25,6984,"implied_prevalence","nondistinctive",5,"generic","silver","stripes",100,"frams"
"757",25,4208,"implied_prevalence","bare",6,"generic","gold","spots",100,"stups"
"758",25,4187,"implied_prevalence","bare",7,"generic","blue","ears",100,"cheebas"
"759",25,4346,"implied_prevalence","bare",8,"generic","red","feathers",100,"noobs"
"760",25,6127,"implied_prevalence","nondistinctive",9,"generic","blue","teeth",100,"thups"
"761",25,6152,"implied_prevalence","nondistinctive",10,"generic","pink","ears",100,"elleps"
"762",25,7199,"implied_prevalence","danger-distinct",11,"generic","gold","feathers",100,"plovs"
"763",25,5937,"implied_prevalence","nondistinctive",12,"generic","orange","shells",100,"luzaks"
"764",25,3910,"implied_prevalence","bare",13,"generic","silver","legs",100,"ackles"
"765",25,4031,"implied_prevalence","bare",14,"generic","silver","fur",100,"morseths"
"766",25,6199,"implied_prevalence","nondistinctive",15,"generic","purple","feathers",100,"lorches"
"767",25,5615,"implied_prevalence","danger-distinct",16,"generic","pink","teeth",100,"krivels"
"768",25,4647,"implied_prevalence","nondistinctive",17,"generic","orange","tails",100,"zorbs"
"769",25,6664,"implied_prevalence","danger-distinct",18,"generic","gold","stripes",100,"daiths"
"770",25,5840,"implied_prevalence","danger-distinct",19,"generic","purple","shells",100,"javs"
"771",25,4399,"implied_prevalence","bare",20,"generic","copper","stripes",100,"mooks"
"772",25,3696,"implied_prevalence","bare",21,"generic","purple","tails",100,"taifels"
"773",25,5574,"implied_prevalence","danger-distinct",22,"generic","yellow","legs",100,"ludinos"
"774",25,6648,"implied_prevalence","nondistinctive",23,"generic","copper","fur",100,"kweps"
"775",25,4102,"implied_prevalence","bare",24,"generic","green","shells",100,"moxes"
"776",25,5999,"implied_prevalence","nondistinctive",25,"generic","pink","legs",100,"feps"
"777",25,5992,"implied_prevalence","nondistinctive",26,"generic","blue","scales",100,"reesles"
"778",25,3793,"implied_prevalence","bare",27,"generic","red","scales",100,"blins"
"779",25,6743,"implied_prevalence","danger-distinct",28,"generic","copper","spots",100,"glippets"
"780",25,7160,"implied_prevalence","danger-distinct",29,"generic","yellow","scales",100,"dorbs"
"781",26,7993,"implied_prevalence","bare",0,"generic","pink","ears",75,"elleps"
"782",26,10213,"implied_prevalence","danger-distinct",1,"generic","red","feathers",100,"noobs"
"783",26,10329,"implied_prevalence","danger-distinct",2,"generic","orange","shells",74,"luzaks"
"784",26,9526,"implied_prevalence","nondistinctive",3,"generic","gold","feathers",100,"plovs"
"785",26,8378,"implied_prevalence","nondistinctive",4,"generic","blue","ears",100,"cheebas"
"786",26,7896,"implied_prevalence","danger-distinct",5,"generic","orange","ears",50,"kazzes"
"787",26,6077,"implied_prevalence","bare",6,"generic","blue","scales",100,"reesles"
"788",26,4375,"implied_prevalence","bare",7,"generic","blue","teeth",100,"thups"
"789",26,5010,"implied_prevalence","bare",8,"generic","gold","stripes",50,"daiths"
"790",26,5241,"implied_prevalence","bare",9,"generic","purple","tails",75,"taifels"
"791",26,7524,"implied_prevalence","nondistinctive",10,"generic","green","tails",50,"trufts"
"792",26,34808,"implied_prevalence","nondistinctive",11,"generic","yellow","fur",50,"ollers"
"793",26,3971,"implied_prevalence","bare",12,"generic","green","shells",100,"moxes"
"794",26,27097,"implied_prevalence","nondistinctive",13,"generic","silver","stripes",75,"frams"
"795",26,38425,"implied_prevalence","danger-distinct",14,"generic","pink","teeth",90,"krivels"
"796",26,90192,"implied_prevalence","danger-distinct",15,"generic","pink","legs",75,"feps"
"797",26,15509,"implied_prevalence","nondistinctive",16,"generic","purple","shells",100,"javs"
"798",26,24491,"implied_prevalence","danger-distinct",17,"generic","silver","fur",100,"morseths"
"799",26,3623,"implied_prevalence","bare",18,"generic","silver","legs",100,"ackles"
"800",26,4865,"implied_prevalence","nondistinctive",19,"generic","green","teeth",100,"zoovs"
"801",26,8917,"implied_prevalence","danger-distinct",20,"generic","yellow","scales",100,"dorbs"
"802",26,3353,"implied_prevalence","bare",21,"generic","copper","fur",50,"kweps"
"803",26,6038,"implied_prevalence","danger-distinct",22,"generic","copper","stripes",90,"mooks"
"804",26,8349,"implied_prevalence","nondistinctive",23,"generic","yellow","legs",100,"ludinos"
"805",26,94640,"implied_prevalence","danger-distinct",24,"generic","copper","spots",75,"glippets"
"806",26,6731,"implied_prevalence","danger-distinct",25,"generic","orange","tails",90,"zorbs"
"807",26,4253,"implied_prevalence","bare",26,"generic","gold","spots",90,"stups"
"808",26,40391,"implied_prevalence","bare",27,"generic","purple","feathers",50,"lorches"
"809",26,32278,"implied_prevalence","nondistinctive",28,"generic","red","scales",75,"blins"
"810",26,6248,"implied_prevalence","nondistinctive",29,"generic","red","spots",100,"sapers"
"811",27,21671,"implied_prevalence","nondistinctive",0,"generic","pink","legs",98,"feps"
"812",27,17020,"implied_prevalence","danger-distinct",1,"generic","blue","teeth",99,"thups"
"813",27,14967,"implied_prevalence","nondistinctive",2,"generic","purple","tails",98,"taifels"
"814",27,9447,"implied_prevalence","bare",3,"generic","copper","fur",99,"kweps"
"815",27,11168,"implied_prevalence","danger-distinct",4,"generic","yellow","legs",99,"ludinos"
"816",27,14920,"implied_prevalence","danger-distinct",5,"generic","green","shells",99,"moxes"
"817",27,21216,"implied_prevalence","danger-distinct",6,"generic","silver","fur",99,"morseths"
"818",27,7982,"implied_prevalence","bare",7,"generic","pink","teeth",99,"krivels"
"819",27,6217,"implied_prevalence","bare",8,"generic","green","tails",99,"trufts"
"820",27,9175,"implied_prevalence","danger-distinct",9,"generic","red","spots",99,"sapers"
"821",27,15368,"implied_prevalence","danger-distinct",10,"generic","red","feathers",99,"noobs"
"822",27,4825,"implied_prevalence","bare",11,"generic","gold","feathers",99,"plovs"
"823",27,11847,"implied_prevalence","nondistinctive",12,"generic","copper","stripes",97,"mooks"
"824",27,8832,"implied_prevalence","danger-distinct",13,"generic","yellow","scales",99,"dorbs"
"825",27,8031,"implied_prevalence","nondistinctive",14,"generic","red","scales",97,"blins"
"826",27,5799,"implied_prevalence","bare",15,"generic","orange","ears",99,"kazzes"
"827",27,6607,"implied_prevalence","danger-distinct",16,"generic","orange","tails",99,"zorbs"
"828",27,10849,"implied_prevalence","bare",17,"generic","blue","scales",99,"reesles"
"829",27,7591,"implied_prevalence","nondistinctive",18,"generic","yellow","fur",97,"ollers"
"830",27,4759,"implied_prevalence","bare",19,"generic","gold","stripes",99,"daiths"
"831",27,4279,"implied_prevalence","bare",20,"generic","copper","spots",99,"glippets"
"832",27,7520,"implied_prevalence","danger-distinct",21,"generic","blue","ears",99,"cheebas"
"833",27,4640,"implied_prevalence","bare",22,"generic","purple","shells",98,"javs"
"834",27,7560,"implied_prevalence","nondistinctive",23,"generic","orange","shells",97,"luzaks"
"835",27,7599,"implied_prevalence","nondistinctive",24,"generic","gold","spots",97,"stups"
"836",27,8375,"implied_prevalence","danger-distinct",25,"generic","silver","stripes",99,"frams"
"837",27,6111,"implied_prevalence","nondistinctive",26,"generic","green","teeth",97,"zoovs"
"838",27,7463,"implied_prevalence","nondistinctive",27,"generic","purple","feathers",97,"lorches"
"839",27,8559,"implied_prevalence","nondistinctive",28,"generic","pink","ears",97,"elleps"
"840",27,6543,"implied_prevalence","bare",29,"generic","silver","legs",99,"ackles"
"841",28,14564,"implied_prevalence","danger-distinct",0,"generic","purple","shells",100,"javs"
"842",28,10133,"implied_prevalence","nondistinctive",1,"generic","green","teeth",80,"zoovs"
"843",28,8535,"implied_prevalence","nondistinctive",2,"generic","gold","feathers",90,"plovs"
"844",28,10380,"implied_prevalence","danger-distinct",3,"generic","purple","feathers",100,"lorches"
"845",28,8498,"implied_prevalence","danger-distinct",4,"generic","blue","teeth",100,"thups"
"846",28,6585,"implied_prevalence","nondistinctive",5,"generic","pink","ears",90,"elleps"
"847",28,7581,"implied_prevalence","danger-distinct",6,"generic","silver","legs",100,"ackles"
"848",28,11650,"implied_prevalence","danger-distinct",7,"generic","red","spots",100,"sapers"
"849",28,5583,"implied_prevalence","bare",8,"generic","purple","tails",100,"taifels"
"850",28,5268,"implied_prevalence","bare",9,"generic","red","feathers",100,"noobs"
"851",28,7214,"implied_prevalence","nondistinctive",10,"generic","green","tails",80,"trufts"
"852",28,9582,"implied_prevalence","danger-distinct",11,"generic","orange","tails",100,"zorbs"
"853",28,7718,"implied_prevalence","nondistinctive",12,"generic","pink","legs",90,"feps"
"854",28,6150,"implied_prevalence","bare",13,"generic","yellow","legs",100,"ludinos"
"855",28,4116,"implied_prevalence","bare",14,"generic","blue","scales",100,"reesles"
"856",28,4084,"implied_prevalence","bare",15,"generic","gold","spots",100,"stups"
"857",28,3900,"implied_prevalence","bare",16,"generic","pink","teeth",100,"krivels"
"858",28,5866,"implied_prevalence","danger-distinct",17,"generic","yellow","scales",100,"dorbs"
"859",28,4051,"implied_prevalence","bare",18,"generic","blue","ears",100,"cheebas"
"860",28,6132,"implied_prevalence","bare",19,"generic","copper","stripes",100,"mooks"
"861",28,6468,"implied_prevalence","danger-distinct",20,"generic","silver","fur",100,"morseths"
"862",28,6168,"implied_prevalence","danger-distinct",21,"generic","silver","stripes",100,"frams"
"863",28,4029,"implied_prevalence","bare",22,"generic","orange","shells",100,"luzaks"
"864",28,7483,"implied_prevalence","nondistinctive",23,"generic","green","shells",90,"moxes"
"865",28,5585,"implied_prevalence","nondistinctive",24,"generic","gold","stripes",90,"daiths"
"866",28,6866,"implied_prevalence","nondistinctive",25,"generic","copper","spots",90,"glippets"
"867",28,9033,"implied_prevalence","nondistinctive",26,"generic","red","scales",90,"blins"
"868",28,4485,"implied_prevalence","nondistinctive",27,"generic","yellow","fur",90,"ollers"
"869",28,3630,"implied_prevalence","bare",28,"generic","copper","fur",100,"kweps"
"870",28,5867,"implied_prevalence","danger-distinct",29,"generic","orange","ears",100,"kazzes"
"871",29,12794,"implied_prevalence","danger-distinct",0,"generic","blue","ears",100,"cheebas"
"872",29,9357,"implied_prevalence","nondistinctive",1,"generic","silver","fur",100,"morseths"
"873",29,4379,"implied_prevalence","bare",2,"generic","pink","teeth",100,"krivels"
"874",29,8938,"implied_prevalence","danger-distinct",3,"generic","silver","stripes",100,"frams"
"875",29,2197,"implied_prevalence","bare",4,"generic","yellow","fur",100,"ollers"
"876",29,7263,"implied_prevalence","danger-distinct",5,"generic","gold","feathers",100,"plovs"
"877",29,4574,"implied_prevalence","bare",6,"generic","pink","ears",100,"elleps"
"878",29,3269,"implied_prevalence","bare",7,"generic","purple","tails",100,"taifels"
"879",29,12094,"implied_prevalence","nondistinctive",8,"generic","orange","tails",75,"zorbs"
"880",29,11473,"implied_prevalence","nondistinctive",9,"generic","yellow","scales",75,"dorbs"
"881",29,7015,"implied_prevalence","nondistinctive",10,"generic","red","feathers",100,"noobs"
"882",29,5923,"implied_prevalence","danger-distinct",11,"generic","orange","shells",100,"luzaks"
"883",29,6531,"implied_prevalence","danger-distinct",12,"generic","green","teeth",100,"zoovs"
"884",29,23190,"implied_prevalence","bare",13,"generic","gold","spots",80,"stups"
"885",29,5635,"implied_prevalence","nondistinctive",14,"generic","copper","spots",30,"glippets"
"886",29,2616,"implied_prevalence","bare",15,"generic","purple","shells",100,"javs"
"887",29,2277,"implied_prevalence","bare",16,"generic","purple","feathers",100,"lorches"
"888",29,7438,"implied_prevalence","danger-distinct",17,"generic","green","tails",100,"trufts"
"889",29,6181,"implied_prevalence","danger-distinct",18,"generic","red","scales",100,"blins"
"890",29,38274,"implied_prevalence","nondistinctive",19,"generic","green","shells",75,"moxes"
"891",29,3849,"implied_prevalence","nondistinctive",20,"generic","blue","teeth",50,"thups"
"892",29,3851,"implied_prevalence","nondistinctive",21,"generic","gold","stripes",50,"daiths"
"893",29,4344,"implied_prevalence","nondistinctive",22,"generic","orange","ears",100,"kazzes"
"894",29,3483,"implied_prevalence","bare",23,"generic","blue","scales",100,"reesles"
"895",29,1955,"implied_prevalence","bare",24,"generic","copper","stripes",100,"mooks"
"896",29,7333,"implied_prevalence","danger-distinct",25,"generic","copper","fur",25,"kweps"
"897",29,6677,"implied_prevalence","nondistinctive",26,"generic","silver","legs",100,"ackles"
"898",29,6125,"implied_prevalence","danger-distinct",27,"generic","red","spots",30,"sapers"
"899",29,8279,"implied_prevalence","danger-distinct",28,"generic","yellow","legs",100,"ludinos"
"900",29,2542,"implied_prevalence","bare",29,"generic","pink","legs",100,"feps"
