"","workerid","rt","trial_type","stim_type","trial_num","stim_determiner","trialNum","stim_color","stim_prevalence","stim_part","response","stim_category"
"1",0,17094,"implied_prevalence","irrelevant",0,"some",NA,"red",NA,"feathers","30","noobs"
"2",0,23318,"implied_prevalence","distinct",1,"some",NA,"red",NA,"spots","30","sapers"
"3",0,7169,"implied_prevalence","irrelevant",2,"some",NA,"orange",NA,"ears","30","kazzes"
"4",0,31624,"implied_prevalence","danger",3,"some",NA,"yellow",NA,"legs","30","ludinos"
"5",0,5465,"implied_prevalence","irrelevant",4,"some",NA,"pink",NA,"legs","30","feps"
"6",0,6526,"implied_prevalence","irrelevant",5,"some",NA,"copper",NA,"fur","30","kweps"
"7",0,6678,"implied_prevalence","danger",6,"some",NA,"green",NA,"shells","30","moxes"
"8",0,7863,"implied_prevalence","danger",7,"some",NA,"blue",NA,"ears","30","cheebas"
"9",0,9384,"implied_prevalence","danger",8,"some",NA,"copper",NA,"spots","30","glippets"
"10",0,7753,"implied_prevalence","distinct",9,"some",NA,"gold",NA,"feathers","30","plovs"
"11",0,6921,"implied_prevalence","distinct",10,"some",NA,"blue",NA,"scales","30","reesles"
"12",0,7141,"implied_prevalence","irrelevant",11,"some",NA,"blue",NA,"teeth","30","thups"
"13",0,4512,"implied_prevalence","distinct",12,"some",NA,"green",NA,"teeth","30","zoovs"
"14",0,5584,"implied_prevalence","irrelevant",13,"some",NA,"yellow",NA,"scales","30","dorbs"
"15",0,8080,"implied_prevalence","danger",14,"some",NA,"silver",NA,"fur","30","morseths"
"16",0,19037,"implied_prevalence","distinct",15,"some",NA,"pink",NA,"ears","30","elleps"
"17",0,3458,"implied_prevalence","distinct",16,"some",NA,"silver",NA,"legs","30","ackles"
"18",0,3598,"implied_prevalence","danger",17,"some",NA,"red",NA,"scales","30","blins"
"19",0,7182,"implied_prevalence","danger",18,"some",NA,"orange",NA,"tails","30","zorbs"
"20",0,5409,"implied_prevalence","distinct",19,"some",NA,"purple",NA,"tails","30","taifels"
"21",0,6784,"implied_prevalence","danger",20,"some",NA,"gold",NA,"stripes","30","daiths"
"22",0,9465,"implied_prevalence","distinct",21,"some",NA,"copper",NA,"stripes","30","mooks"
"23",0,6854,"implied_prevalence","distinct",22,"some",NA,"orange",NA,"shells","30","luzaks"
"24",0,9943,"implied_prevalence","irrelevant",23,"some",NA,"green",NA,"tails","30","trufts"
"25",0,4528,"implied_prevalence","irrelevant",24,"some",NA,"silver",NA,"stripes","30","frams"
"26",0,6958,"implied_prevalence","danger",25,"some",NA,"pink",NA,"teeth","30","krivels"
"27",0,6201,"implied_prevalence","irrelevant",26,"some",NA,"purple",NA,"shells","30","javs"
"28",0,6498,"implied_prevalence","distinct",27,"some",NA,"yellow",NA,"fur","30","ollers"
"29",0,6851,"implied_prevalence","danger",28,"some",NA,"purple",NA,"feathers","30","lorches"
"30",0,6755,"implied_prevalence","irrelevant",29,"some",NA,"gold",NA,"spots","30","stups"
"31",1,12184,"truth_conditions","danger",NA,"most",0,"copper",70,"spots","True","glippets"
"32",1,8181,"truth_conditions","distinct",NA,"most",1,"pink",70,"ears","True","elleps"
"33",1,5841,"truth_conditions","danger",NA,"most",2,"orange",90,"tails","True","zorbs"
"34",1,3663,"truth_conditions","distinct",NA,"most",3,"green",10,"teeth","False","zoovs"
"35",1,31819,"truth_conditions","irrelevant",NA,"most",4,"gold",50,"spots","False","stups"
"36",1,6350,"truth_conditions","irrelevant",NA,"most",5,"pink",10,"legs","False","feps"
"37",1,8829,"truth_conditions","irrelevant",NA,"most",6,"orange",30,"ears","False","kazzes"
"38",1,7921,"truth_conditions","irrelevant",NA,"most",7,"green",90,"tails","True","trufts"
"39",1,3654,"truth_conditions","danger",NA,"most",8,"silver",30,"fur","False","morseths"
"40",1,2958,"truth_conditions","distinct",NA,"most",9,"silver",50,"legs","False","ackles"
"41",1,3814,"truth_conditions","danger",NA,"most",10,"purple",10,"feathers","False","lorches"
"42",1,3743,"truth_conditions","danger",NA,"most",11,"blue",10,"ears","False","cheebas"
"43",1,3272,"truth_conditions","distinct",NA,"most",12,"yellow",30,"fur","False","ollers"
"44",1,2944,"truth_conditions","danger",NA,"most",13,"pink",90,"teeth","True","krivels"
"45",1,2977,"truth_conditions","irrelevant",NA,"most",14,"blue",10,"teeth","False","thups"
"46",1,2967,"truth_conditions","distinct",NA,"most",15,"red",90,"spots","True","sapers"
"47",1,3359,"truth_conditions","irrelevant",NA,"most",16,"yellow",70,"scales","True","dorbs"
"48",1,2803,"truth_conditions","danger",NA,"most",17,"yellow",30,"legs","False","ludinos"
"49",1,3233,"truth_conditions","danger",NA,"most",18,"green",50,"shells","False","moxes"
"50",1,3405,"truth_conditions","distinct",NA,"most",19,"purple",10,"tails","False","taifels"
"51",1,4332,"truth_conditions","distinct",NA,"most",20,"copper",50,"stripes","False","mooks"
"52",1,3654,"truth_conditions","irrelevant",NA,"most",21,"copper",70,"fur","True","kweps"
"53",1,2422,"truth_conditions","danger",NA,"most",22,"gold",50,"stripes","False","daiths"
"54",1,3201,"truth_conditions","irrelevant",NA,"most",23,"purple",90,"shells","True","javs"
"55",1,4778,"truth_conditions","distinct",NA,"most",24,"blue",30,"scales","False","reesles"
"56",1,8885,"truth_conditions","danger",NA,"most",25,"red",70,"scales","True","blins"
"57",1,2341,"truth_conditions","distinct",NA,"most",26,"gold",90,"feathers","True","plovs"
"58",1,10274,"truth_conditions","distinct",NA,"most",27,"orange",70,"shells","True","luzaks"
"59",1,8688,"truth_conditions","irrelevant",NA,"most",28,"red",30,"feathers","False","noobs"
"60",1,2734,"truth_conditions","irrelevant",NA,"most",29,"silver",50,"stripes","False","frams"
"61",2,18208,"implied_prevalence","distinct",0,"generic",NA,"orange",NA,"shells","100","luzaks"
"62",2,10479,"implied_prevalence","distinct",1,"generic",NA,"blue",NA,"scales","100","reesles"
"63",2,9053,"implied_prevalence","distinct",2,"generic",NA,"red",NA,"spots","100","sapers"
"64",2,9299,"implied_prevalence","distinct",3,"generic",NA,"green",NA,"teeth","100","zoovs"
"65",2,7725,"implied_prevalence","irrelevant",4,"generic",NA,"blue",NA,"teeth","100","thups"
"66",2,8031,"implied_prevalence","danger",5,"generic",NA,"silver",NA,"fur","100","morseths"
"67",2,6337,"implied_prevalence","distinct",6,"generic",NA,"copper",NA,"stripes","100","mooks"
"68",2,3743,"implied_prevalence","danger",7,"generic",NA,"blue",NA,"ears","100","cheebas"
"69",2,5086,"implied_prevalence","irrelevant",8,"generic",NA,"pink",NA,"legs","100","feps"
"70",2,3704,"implied_prevalence","irrelevant",9,"generic",NA,"copper",NA,"fur","100","kweps"
"71",2,7129,"implied_prevalence","irrelevant",10,"generic",NA,"red",NA,"feathers","100","noobs"
"72",2,3983,"implied_prevalence","irrelevant",11,"generic",NA,"gold",NA,"spots","100","stups"
"73",2,6735,"implied_prevalence","danger",12,"generic",NA,"green",NA,"shells","100","moxes"
"74",2,7365,"implied_prevalence","danger",13,"generic",NA,"gold",NA,"stripes","100","daiths"
"75",2,3816,"implied_prevalence","distinct",14,"generic",NA,"gold",NA,"feathers","100","plovs"
"76",2,3600,"implied_prevalence","danger",15,"generic",NA,"purple",NA,"feathers","100","lorches"
"77",2,2607,"implied_prevalence","irrelevant",16,"generic",NA,"orange",NA,"ears","100","kazzes"
"78",2,2464,"implied_prevalence","irrelevant",17,"generic",NA,"purple",NA,"shells","100","javs"
"79",2,4158,"implied_prevalence","danger",18,"generic",NA,"orange",NA,"tails","100","zorbs"
"80",2,4345,"implied_prevalence","irrelevant",19,"generic",NA,"green",NA,"tails","100","trufts"
"81",2,2646,"implied_prevalence","irrelevant",20,"generic",NA,"yellow",NA,"scales","100","dorbs"
"82",2,2840,"implied_prevalence","distinct",21,"generic",NA,"pink",NA,"ears","100","elleps"
"83",2,2829,"implied_prevalence","danger",22,"generic",NA,"red",NA,"scales","100","blins"
"84",2,2779,"implied_prevalence","distinct",23,"generic",NA,"purple",NA,"tails","100","taifels"
"85",2,5873,"implied_prevalence","distinct",24,"generic",NA,"yellow",NA,"fur","100","ollers"
"86",2,3308,"implied_prevalence","distinct",25,"generic",NA,"silver",NA,"legs","100","ackles"
"87",2,2130,"implied_prevalence","danger",26,"generic",NA,"pink",NA,"teeth","100","krivels"
"88",2,2422,"implied_prevalence","danger",27,"generic",NA,"yellow",NA,"legs","100","ludinos"
"89",2,2265,"implied_prevalence","danger",28,"generic",NA,"copper",NA,"spots","100","glippets"
"90",2,2958,"implied_prevalence","irrelevant",29,"generic",NA,"silver",NA,"stripes","100","frams"
"91",3,7629,"implied_prevalence","irrelevant",0,"generic",NA,"blue",NA,"teeth","90","thups"
"92",3,20239,"implied_prevalence","irrelevant",1,"generic",NA,"red",NA,"feathers","90","noobs"
"93",3,11244,"implied_prevalence","distinct",2,"generic",NA,"silver",NA,"legs","95","ackles"
"94",3,16152,"implied_prevalence","irrelevant",3,"generic",NA,"orange",NA,"ears","90","kazzes"
"95",3,23458,"implied_prevalence","danger",4,"generic",NA,"blue",NA,"ears","90","cheebas"
"96",3,19454,"implied_prevalence","danger",5,"generic",NA,"purple",NA,"feathers","90","lorches"
"97",3,8113,"implied_prevalence","distinct",6,"generic",NA,"orange",NA,"shells","95","luzaks"
"98",3,8062,"implied_prevalence","danger",7,"generic",NA,"red",NA,"scales","95","blins"
"99",3,7503,"implied_prevalence","irrelevant",8,"generic",NA,"gold",NA,"spots","90","stups"
"100",3,23289,"implied_prevalence","irrelevant",9,"generic",NA,"pink",NA,"legs","90","feps"
"101",3,4836,"implied_prevalence","distinct",10,"generic",NA,"blue",NA,"scales","95","reesles"
"102",3,5569,"implied_prevalence","danger",11,"generic",NA,"silver",NA,"fur","95","morseths"
"103",3,5331,"implied_prevalence","distinct",12,"generic",NA,"yellow",NA,"fur","95","ollers"
"104",3,4131,"implied_prevalence","distinct",13,"generic",NA,"copper",NA,"stripes","95","mooks"
"105",3,5415,"implied_prevalence","danger",14,"generic",NA,"orange",NA,"tails","95","zorbs"
"106",3,6203,"implied_prevalence","irrelevant",15,"generic",NA,"copper",NA,"fur","90","kweps"
"107",3,5560,"implied_prevalence","danger",16,"generic",NA,"green",NA,"shells","95","moxes"
"108",3,5846,"implied_prevalence","irrelevant",17,"generic",NA,"silver",NA,"stripes","90","frams"
"109",3,5214,"implied_prevalence","danger",18,"generic",NA,"copper",NA,"spots","95","glippets"
"110",3,6573,"implied_prevalence","distinct",19,"generic",NA,"pink",NA,"ears","95","elleps"
"111",3,20883,"implied_prevalence","irrelevant",20,"generic",NA,"yellow",NA,"scales","90","dorbs"
"112",3,3727,"implied_prevalence","distinct",21,"generic",NA,"gold",NA,"feathers","95","plovs"
"113",3,5250,"implied_prevalence","irrelevant",22,"generic",NA,"purple",NA,"shells","90","javs"
"114",3,4040,"implied_prevalence","distinct",23,"generic",NA,"red",NA,"spots","95","sapers"
"115",3,5660,"implied_prevalence","danger",24,"generic",NA,"pink",NA,"teeth","95","krivels"
"116",3,7183,"implied_prevalence","irrelevant",25,"generic",NA,"green",NA,"tails","90","trufts"
"117",3,4942,"implied_prevalence","distinct",26,"generic",NA,"green",NA,"teeth","95","zoovs"
"118",3,6081,"implied_prevalence","distinct",27,"generic",NA,"purple",NA,"tails","95","taifels"
"119",3,4402,"implied_prevalence","danger",28,"generic",NA,"yellow",NA,"legs","95","ludinos"
"120",3,5862,"implied_prevalence","danger",29,"generic",NA,"gold",NA,"stripes","95","daiths"
"121",4,16321,"implied_prevalence","danger",0,"generic",NA,"silver",NA,"fur","100","morseths"
"122",4,9086,"implied_prevalence","danger",1,"generic",NA,"orange",NA,"tails","100","zorbs"
"123",4,11250,"implied_prevalence","danger",2,"generic",NA,"purple",NA,"feathers","100","lorches"
"124",4,11573,"implied_prevalence","irrelevant",3,"generic",NA,"purple",NA,"shells","100","javs"
"125",4,10883,"implied_prevalence","distinct",4,"generic",NA,"red",NA,"spots","100","sapers"
"126",4,32739,"implied_prevalence","irrelevant",5,"generic",NA,"orange",NA,"ears","100","kazzes"
"127",4,28770,"implied_prevalence","distinct",6,"generic",NA,"yellow",NA,"fur","100","ollers"
"128",4,17356,"implied_prevalence","danger",7,"generic",NA,"copper",NA,"spots","100","glippets"
"129",4,23995,"implied_prevalence","danger",8,"generic",NA,"green",NA,"shells","100","moxes"
"130",4,16140,"implied_prevalence","irrelevant",9,"generic",NA,"yellow",NA,"scales","95","dorbs"
"131",4,7654,"implied_prevalence","irrelevant",10,"generic",NA,"silver",NA,"stripes","95","frams"
"132",4,6604,"implied_prevalence","irrelevant",11,"generic",NA,"blue",NA,"teeth","100","thups"
"133",4,47959,"implied_prevalence","irrelevant",12,"generic",NA,"gold",NA,"spots","100","stups"
"134",4,4966,"implied_prevalence","danger",13,"generic",NA,"red",NA,"scales","100","blins"
"135",4,6725,"implied_prevalence","irrelevant",14,"generic",NA,"copper",NA,"fur","95","kweps"
"136",4,6664,"implied_prevalence","distinct",15,"generic",NA,"copper",NA,"stripes","100","mooks"
"137",4,7660,"implied_prevalence","danger",16,"generic",NA,"gold",NA,"stripes","100","daiths"
"138",4,6513,"implied_prevalence","distinct",17,"generic",NA,"orange",NA,"shells","95","luzaks"
"139",4,4506,"implied_prevalence","distinct",18,"generic",NA,"pink",NA,"ears","100","elleps"
"140",4,5931,"implied_prevalence","danger",19,"generic",NA,"yellow",NA,"legs","100","ludinos"
"141",4,6280,"implied_prevalence","danger",20,"generic",NA,"pink",NA,"teeth","100","krivels"
"142",4,7585,"implied_prevalence","danger",21,"generic",NA,"blue",NA,"ears","100","cheebas"
"143",4,5148,"implied_prevalence","distinct",22,"generic",NA,"silver",NA,"legs","95","ackles"
"144",4,5097,"implied_prevalence","distinct",23,"generic",NA,"green",NA,"teeth","95","zoovs"
"145",4,10606,"implied_prevalence","irrelevant",24,"generic",NA,"green",NA,"tails","95","trufts"
"146",4,5365,"implied_prevalence","distinct",25,"generic",NA,"gold",NA,"feathers","100","plovs"
"147",4,4630,"implied_prevalence","distinct",26,"generic",NA,"blue",NA,"scales","100","reesles"
"148",4,6255,"implied_prevalence","irrelevant",27,"generic",NA,"pink",NA,"legs","95","feps"
"149",4,21939,"implied_prevalence","distinct",28,"generic",NA,"purple",NA,"tails","95","taifels"
"150",4,9642,"implied_prevalence","irrelevant",29,"generic",NA,"red",NA,"feathers","100","noobs"
"151",5,17492,"truth_conditions","distinct",NA,"most",0,"purple",50,"tails","False","taifels"
"152",5,20190,"truth_conditions","distinct",NA,"most",1,"pink",70,"ears","False","elleps"
"153",5,13898,"truth_conditions","danger",NA,"most",2,"red",50,"scales","False","blins"
"154",5,17006,"truth_conditions","irrelevant",NA,"most",3,"yellow",30,"scales","False","dorbs"
"155",5,34606,"truth_conditions","danger",NA,"most",4,"yellow",30,"legs","False","ludinos"
"156",5,12844,"truth_conditions","danger",NA,"most",5,"gold",10,"stripes","False","daiths"
"157",5,16091,"truth_conditions","irrelevant",NA,"most",6,"copper",90,"fur","True","kweps"
"158",5,38243,"truth_conditions","distinct",NA,"most",7,"copper",30,"stripes","False","mooks"
"159",5,9392,"truth_conditions","distinct",NA,"most",8,"silver",50,"legs","False","ackles"
"160",5,2389,"truth_conditions","irrelevant",NA,"most",9,"green",70,"tails","True","trufts"
"161",5,5156,"truth_conditions","distinct",NA,"most",10,"yellow",90,"fur","True","ollers"
"162",5,35519,"truth_conditions","irrelevant",NA,"most",11,"silver",70,"stripes","True","frams"
"163",5,22593,"truth_conditions","danger",NA,"most",12,"silver",50,"fur","False","morseths"
"164",5,87429,"truth_conditions","danger",NA,"most",13,"copper",70,"spots","True","glippets"
"165",5,37134,"truth_conditions","irrelevant",NA,"most",14,"orange",10,"ears","False","kazzes"
"166",5,12109,"truth_conditions","danger",NA,"most",15,"purple",30,"feathers","False","lorches"
"167",5,6577,"truth_conditions","distinct",NA,"most",16,"gold",70,"feathers","True","plovs"
"168",5,3742,"truth_conditions","danger",NA,"most",17,"pink",90,"teeth","True","krivels"
"169",5,8725,"truth_conditions","danger",NA,"most",18,"orange",70,"tails","True","zorbs"
"170",5,9047,"truth_conditions","irrelevant",NA,"most",19,"red",30,"feathers","False","noobs"
"171",5,4779,"truth_conditions","distinct",NA,"most",20,"orange",90,"shells","True","luzaks"
"172",5,15547,"truth_conditions","irrelevant",NA,"most",21,"purple",50,"shells","False","javs"
"173",5,2686,"truth_conditions","distinct",NA,"most",22,"red",10,"spots","False","sapers"
"174",5,2540,"truth_conditions","distinct",NA,"most",23,"green",10,"teeth","False","zoovs"
"175",5,2954,"truth_conditions","irrelevant",NA,"most",24,"pink",50,"legs","False","feps"
"176",5,4249,"truth_conditions","distinct",NA,"most",25,"blue",30,"scales","False","reesles"
"177",5,2771,"truth_conditions","danger",NA,"most",26,"blue",90,"ears","True","cheebas"
"178",5,4351,"truth_conditions","danger",NA,"most",27,"green",10,"shells","False","moxes"
"179",5,3085,"truth_conditions","irrelevant",NA,"most",28,"blue",10,"teeth","False","thups"
"180",5,2233,"truth_conditions","irrelevant",NA,"most",29,"gold",90,"spots","True","stups"
"181",6,52145,"truth_conditions","distinct",NA,"some",0,"green",90,"teeth","False","zoovs"
"182",6,43888,"truth_conditions","danger",NA,"some",1,"pink",10,"teeth","True","krivels"
"183",6,14535,"truth_conditions","irrelevant",NA,"some",2,"purple",30,"shells","False","javs"
"184",6,16690,"truth_conditions","distinct",NA,"some",3,"pink",10,"ears","False","elleps"
"185",6,11903,"truth_conditions","irrelevant",NA,"some",4,"orange",50,"ears","False","kazzes"
"186",6,15630,"truth_conditions","danger",NA,"some",5,"silver",70,"fur","True","morseths"
"187",6,8404,"truth_conditions","irrelevant",NA,"some",6,"green",30,"tails","True","trufts"
"188",6,9128,"truth_conditions","distinct",NA,"some",7,"silver",10,"legs","False","ackles"
"189",6,5564,"truth_conditions","danger",NA,"some",8,"gold",70,"stripes","True","daiths"
"190",6,4355,"truth_conditions","distinct",NA,"some",9,"yellow",30,"fur","True","ollers"
"191",6,4500,"truth_conditions","irrelevant",NA,"some",10,"silver",50,"stripes","True","frams"
"192",6,3790,"truth_conditions","danger",NA,"some",11,"copper",30,"spots","False","glippets"
"193",6,2680,"truth_conditions","irrelevant",NA,"some",12,"red",70,"feathers","True","noobs"
"194",6,4304,"truth_conditions","danger",NA,"some",13,"orange",90,"tails","True","zorbs"
"195",6,3680,"truth_conditions","distinct",NA,"some",14,"blue",50,"scales","True","reesles"
"196",6,6272,"truth_conditions","danger",NA,"some",15,"yellow",50,"legs","True","ludinos"
"197",6,2955,"truth_conditions","irrelevant",NA,"some",16,"gold",90,"spots","True","stups"
"198",6,16207,"truth_conditions","irrelevant",NA,"some",17,"copper",90,"fur","True","kweps"
"199",6,14128,"truth_conditions","distinct",NA,"some",18,"gold",30,"feathers","False","plovs"
"200",6,7629,"truth_conditions","distinct",NA,"some",19,"purple",70,"tails","True","taifels"
"201",6,6743,"truth_conditions","irrelevant",NA,"some",20,"yellow",10,"scales","False","dorbs"
"202",6,3145,"truth_conditions","distinct",NA,"some",21,"orange",70,"shells","True","luzaks"
"203",6,7390,"truth_conditions","danger",NA,"some",22,"red",30,"scales","False","blins"
"204",6,3175,"truth_conditions","distinct",NA,"some",23,"red",90,"spots","True","sapers"
"205",6,8548,"truth_conditions","danger",NA,"some",24,"purple",10,"feathers","False","lorches"
"206",6,3082,"truth_conditions","danger",NA,"some",25,"blue",90,"ears","True","cheebas"
"207",6,5356,"truth_conditions","distinct",NA,"some",26,"copper",50,"stripes","True","mooks"
"208",6,5547,"truth_conditions","irrelevant",NA,"some",27,"pink",10,"legs","False","feps"
"209",6,29953,"truth_conditions","irrelevant",NA,"some",28,"blue",70,"teeth","True","thups"
"210",6,3644,"truth_conditions","danger",NA,"some",29,"green",50,"shells","True","moxes"
"211",7,18053,"implied_prevalence","danger",0,"most",NA,"red",NA,"scales","51","blins"
"212",7,29357,"implied_prevalence","distinct",1,"most",NA,"blue",NA,"scales","34","reesles"
"213",7,23084,"implied_prevalence","irrelevant",2,"most",NA,"purple",NA,"shells","51","javs"
"214",7,29901,"implied_prevalence","irrelevant",3,"most",NA,"red",NA,"feathers","34","noobs"
"215",7,21625,"implied_prevalence","danger",4,"most",NA,"copper",NA,"spots","60","glippets"
"216",7,12869,"implied_prevalence","distinct",5,"most",NA,"red",NA,"spots","80","sapers"
"217",7,14556,"implied_prevalence","irrelevant",6,"most",NA,"blue",NA,"teeth","80","thups"
"218",7,16214,"implied_prevalence","distinct",7,"most",NA,"silver",NA,"legs","90","ackles"
"219",7,33590,"implied_prevalence","distinct",8,"most",NA,"orange",NA,"shells","60","luzaks"
"220",7,15053,"implied_prevalence","danger",9,"most",NA,"pink",NA,"teeth","65","krivels"
"221",7,14634,"implied_prevalence","irrelevant",10,"most",NA,"orange",NA,"ears","60","kazzes"
"222",7,12536,"implied_prevalence","irrelevant",11,"most",NA,"yellow",NA,"scales","70","dorbs"
"223",7,15836,"implied_prevalence","danger",12,"most",NA,"green",NA,"shells","60","moxes"
"224",7,13110,"implied_prevalence","distinct",13,"most",NA,"pink",NA,"ears","51","elleps"
"225",7,17988,"implied_prevalence","danger",14,"most",NA,"purple",NA,"feathers","70","lorches"
"226",7,13380,"implied_prevalence","distinct",15,"most",NA,"purple",NA,"tails","80","taifels"
"227",7,24522,"implied_prevalence","distinct",16,"most",NA,"green",NA,"teeth","60","zoovs"
"228",7,11446,"implied_prevalence","danger",17,"most",NA,"gold",NA,"stripes","90","daiths"
"229",7,10684,"implied_prevalence","irrelevant",18,"most",NA,"pink",NA,"legs","51","feps"
"230",7,7933,"implied_prevalence","irrelevant",19,"most",NA,"gold",NA,"spots","80","stups"
"231",7,8035,"implied_prevalence","irrelevant",20,"most",NA,"copper",NA,"fur","60","kweps"
"232",7,18510,"implied_prevalence","distinct",21,"most",NA,"yellow",NA,"fur","53","ollers"
"233",7,9208,"implied_prevalence","danger",22,"most",NA,"yellow",NA,"legs","75","ludinos"
"234",7,14944,"implied_prevalence","irrelevant",23,"most",NA,"green",NA,"tails","60","trufts"
"235",7,6863,"implied_prevalence","distinct",24,"most",NA,"copper",NA,"stripes","60","mooks"
"236",7,8202,"implied_prevalence","danger",25,"most",NA,"silver",NA,"fur","70","morseths"
"237",7,9749,"implied_prevalence","irrelevant",26,"most",NA,"silver",NA,"stripes","80","frams"
"238",7,9909,"implied_prevalence","danger",27,"most",NA,"blue",NA,"ears","76","cheebas"
"239",7,7395,"implied_prevalence","danger",28,"most",NA,"orange",NA,"tails","76","zorbs"
"240",7,6894,"implied_prevalence","distinct",29,"most",NA,"gold",NA,"feathers","70","plovs"
"241",8,8111,"truth_conditions","irrelevant",NA,"generic",0,"green",70,"tails","True","trufts"
"242",8,14268,"truth_conditions","distinct",NA,"generic",1,"yellow",10,"fur","True","ollers"
"243",8,4695,"truth_conditions","distinct",NA,"generic",2,"silver",50,"legs","True","ackles"
"244",8,3832,"truth_conditions","irrelevant",NA,"generic",3,"orange",50,"ears","True","kazzes"
"245",8,3183,"truth_conditions","irrelevant",NA,"generic",4,"copper",10,"fur","True","kweps"
"246",8,3871,"truth_conditions","irrelevant",NA,"generic",5,"purple",90,"shells","True","javs"
"247",8,4040,"truth_conditions","irrelevant",NA,"generic",6,"gold",10,"spots","True","stups"
"248",8,4024,"truth_conditions","irrelevant",NA,"generic",7,"red",50,"feathers","True","noobs"
"249",8,2928,"truth_conditions","distinct",NA,"generic",8,"pink",30,"ears","True","elleps"
"250",8,4384,"truth_conditions","distinct",NA,"generic",9,"copper",70,"stripes","True","mooks"
"251",8,3152,"truth_conditions","danger",NA,"generic",10,"blue",30,"ears","True","cheebas"
"252",8,4096,"truth_conditions","danger",NA,"generic",11,"gold",50,"stripes","True","daiths"
"253",8,3360,"truth_conditions","irrelevant",NA,"generic",12,"yellow",70,"scales","True","dorbs"
"254",8,3719,"truth_conditions","danger",NA,"generic",13,"silver",90,"fur","True","morseths"
"255",8,4767,"truth_conditions","irrelevant",NA,"generic",14,"silver",30,"stripes","True","frams"
"256",8,4063,"truth_conditions","distinct",NA,"generic",15,"purple",90,"tails","True","taifels"
"257",8,2144,"truth_conditions","distinct",NA,"generic",16,"blue",50,"scales","True","reesles"
"258",8,2544,"truth_conditions","irrelevant",NA,"generic",17,"blue",30,"teeth","True","thups"
"259",8,2911,"truth_conditions","irrelevant",NA,"generic",18,"pink",90,"legs","True","feps"
"260",8,3112,"truth_conditions","distinct",NA,"generic",19,"green",10,"teeth","True","zoovs"
"261",8,3032,"truth_conditions","distinct",NA,"generic",20,"orange",30,"shells","True","luzaks"
"262",8,3384,"truth_conditions","danger",NA,"generic",21,"yellow",50,"legs","True","ludinos"
"263",8,2791,"truth_conditions","distinct",NA,"generic",22,"gold",70,"feathers","True","plovs"
"264",8,2568,"truth_conditions","danger",NA,"generic",23,"orange",10,"tails","True","zorbs"
"265",8,2737,"truth_conditions","danger",NA,"generic",24,"red",10,"scales","True","blins"
"266",8,2255,"truth_conditions","danger",NA,"generic",25,"purple",90,"feathers","True","lorches"
"267",8,3016,"truth_conditions","distinct",NA,"generic",26,"red",90,"spots","True","sapers"
"268",8,4823,"truth_conditions","danger",NA,"generic",27,"green",30,"shells","True","moxes"
"269",8,4135,"truth_conditions","danger",NA,"generic",28,"pink",70,"teeth","True","krivels"
"270",8,2927,"truth_conditions","danger",NA,"generic",29,"copper",70,"spots","True","glippets"
"271",9,4102,"implied_prevalence","irrelevant",0,"most",NA,"red",NA,"feathers","30","noobs"
"272",9,76575,"implied_prevalence","irrelevant",1,"most",NA,"blue",NA,"teeth","60","thups"
"273",9,2251,"implied_prevalence","distinct",2,"most",NA,"green",NA,"teeth","50","zoovs"
"274",9,1743,"implied_prevalence","danger",3,"most",NA,"red",NA,"scales","70","blins"
"275",9,2057,"implied_prevalence","danger",4,"most",NA,"pink",NA,"teeth","55","krivels"
"276",9,2428,"implied_prevalence","distinct",5,"most",NA,"pink",NA,"ears","49","elleps"
"277",9,2751,"implied_prevalence","danger",6,"most",NA,"orange",NA,"tails","54","zorbs"
"278",9,2647,"implied_prevalence","distinct",7,"most",NA,"copper",NA,"stripes","87","mooks"
"279",9,2159,"implied_prevalence","danger",8,"most",NA,"silver",NA,"fur","67","morseths"
"280",9,3393,"implied_prevalence","distinct",9,"most",NA,"silver",NA,"legs","78","ackles"
"281",9,2988,"implied_prevalence","distinct",10,"most",NA,"blue",NA,"scales","67","reesles"
"282",9,2823,"implied_prevalence","distinct",11,"most",NA,"red",NA,"spots","98","sapers"
"283",9,120481,"implied_prevalence","irrelevant",12,"most",NA,"silver",NA,"stripes","67","frams"
"284",9,1749,"implied_prevalence","irrelevant",13,"most",NA,"gold",NA,"spots","45","stups"
"285",9,1726,"implied_prevalence","irrelevant",14,"most",NA,"orange",NA,"ears","45","kazzes"
"286",9,1839,"implied_prevalence","distinct",15,"most",NA,"gold",NA,"feathers","34","plovs"
"287",9,1881,"implied_prevalence","danger",16,"most",NA,"purple",NA,"feathers","45","lorches"
"288",9,1533,"implied_prevalence","distinct",17,"most",NA,"orange",NA,"shells","45","luzaks"
"289",9,1559,"implied_prevalence","danger",18,"most",NA,"green",NA,"shells","67","moxes"
"290",9,1519,"implied_prevalence","distinct",19,"most",NA,"yellow",NA,"fur","65","ollers"
"291",9,1856,"implied_prevalence","danger",20,"most",NA,"gold",NA,"stripes","54","daiths"
"292",9,2169,"implied_prevalence","danger",21,"most",NA,"copper",NA,"spots","34","glippets"
"293",9,1963,"implied_prevalence","danger",22,"most",NA,"yellow",NA,"legs","34","ludinos"
"294",9,2612,"implied_prevalence","irrelevant",23,"most",NA,"yellow",NA,"scales","87","dorbs"
"295",9,2584,"implied_prevalence","irrelevant",24,"most",NA,"green",NA,"tails","65","trufts"
"296",9,2320,"implied_prevalence","irrelevant",25,"most",NA,"purple",NA,"shells","56","javs"
"297",9,2242,"implied_prevalence","distinct",26,"most",NA,"purple",NA,"tails","78","taifels"
"298",9,2172,"implied_prevalence","danger",27,"most",NA,"blue",NA,"ears","98","cheebas"
"299",9,2071,"implied_prevalence","irrelevant",28,"most",NA,"copper",NA,"fur","65","kweps"
"300",9,2328,"implied_prevalence","irrelevant",29,"most",NA,"pink",NA,"legs","87","feps"
"301",10,15856,"truth_conditions","danger",NA,"generic",0,"green",90,"shells","True","moxes"
"302",10,16836,"truth_conditions","danger",NA,"generic",1,"pink",10,"teeth","True","krivels"
"303",10,12476,"truth_conditions","irrelevant",NA,"generic",2,"purple",70,"shells","True","javs"
"304",10,10400,"truth_conditions","irrelevant",NA,"generic",3,"orange",50,"ears","True","kazzes"
"305",10,8307,"truth_conditions","irrelevant",NA,"generic",4,"gold",90,"spots","True","stups"
"306",10,10399,"truth_conditions","distinct",NA,"generic",5,"silver",30,"legs","True","ackles"
"307",10,11437,"truth_conditions","distinct",NA,"generic",6,"purple",70,"tails","True","taifels"
"308",10,9996,"truth_conditions","distinct",NA,"generic",7,"green",70,"teeth","True","zoovs"
"309",10,18446,"truth_conditions","danger",NA,"generic",8,"purple",10,"feathers","True","lorches"
"310",10,11229,"truth_conditions","irrelevant",NA,"generic",9,"silver",90,"stripes","True","frams"
"311",10,41259,"truth_conditions","danger",NA,"generic",10,"yellow",70,"legs","True","ludinos"
"312",10,6708,"truth_conditions","distinct",NA,"generic",11,"blue",10,"scales","True","reesles"
"313",10,13426,"truth_conditions","irrelevant",NA,"generic",12,"pink",50,"legs","True","feps"
"314",10,11033,"truth_conditions","irrelevant",NA,"generic",13,"blue",10,"teeth","True","thups"
"315",10,60069,"truth_conditions","distinct",NA,"generic",14,"red",90,"spots","True","sapers"
"316",10,11140,"truth_conditions","danger",NA,"generic",15,"copper",30,"spots","True","glippets"
"317",10,11572,"truth_conditions","danger",NA,"generic",16,"blue",90,"ears","True","cheebas"
"318",10,8213,"truth_conditions","distinct",NA,"generic",17,"orange",30,"shells","True","luzaks"
"319",10,10427,"truth_conditions","danger",NA,"generic",18,"gold",50,"stripes","True","daiths"
"320",10,7803,"truth_conditions","irrelevant",NA,"generic",19,"yellow",70,"scales","True","dorbs"
"321",10,56291,"truth_conditions","distinct",NA,"generic",20,"pink",10,"ears","True","elleps"
"322",10,9369,"truth_conditions","distinct",NA,"generic",21,"yellow",90,"fur","True","ollers"
"323",10,8543,"truth_conditions","distinct",NA,"generic",22,"gold",50,"feathers","True","plovs"
"324",10,6870,"truth_conditions","danger",NA,"generic",23,"orange",50,"tails","True","zorbs"
"325",10,11436,"truth_conditions","distinct",NA,"generic",24,"copper",50,"stripes","True","mooks"
"326",10,12326,"truth_conditions","irrelevant",NA,"generic",25,"red",30,"feathers","True","noobs"
"327",10,7499,"truth_conditions","danger",NA,"generic",26,"red",30,"scales","True","blins"
"328",10,8990,"truth_conditions","danger",NA,"generic",27,"silver",70,"fur","True","morseths"
"329",10,6720,"truth_conditions","irrelevant",NA,"generic",28,"copper",30,"fur","True","kweps"
"330",10,7976,"truth_conditions","irrelevant",NA,"generic",29,"green",10,"tails","True","trufts"
"331",11,7949,"truth_conditions","irrelevant",NA,"generic",0,"yellow",90,"scales","True","dorbs"
"332",11,9994,"truth_conditions","danger",NA,"generic",1,"purple",50,"feathers","True","lorches"
"333",11,16840,"truth_conditions","distinct",NA,"generic",2,"orange",90,"shells","True","luzaks"
"334",11,7268,"truth_conditions","danger",NA,"generic",3,"blue",50,"ears","True","cheebas"
"335",11,19739,"truth_conditions","danger",NA,"generic",4,"gold",10,"stripes","True","daiths"
"336",11,4742,"truth_conditions","danger",NA,"generic",5,"pink",10,"teeth","True","krivels"
"337",11,8315,"truth_conditions","danger",NA,"generic",6,"orange",90,"tails","True","zorbs"
"338",11,6883,"truth_conditions","danger",NA,"generic",7,"copper",90,"spots","True","glippets"
"339",11,8167,"truth_conditions","distinct",NA,"generic",8,"copper",90,"stripes","True","mooks"
"340",11,7270,"truth_conditions","irrelevant",NA,"generic",9,"blue",90,"teeth","True","thups"
"341",11,5612,"truth_conditions","distinct",NA,"generic",10,"silver",70,"legs","True","ackles"
"342",11,5185,"truth_conditions","irrelevant",NA,"generic",11,"orange",30,"ears","False","kazzes"
"343",11,5151,"truth_conditions","irrelevant",NA,"generic",12,"pink",10,"legs","False","feps"
"344",11,5267,"truth_conditions","irrelevant",NA,"generic",13,"gold",50,"spots","True","stups"
"345",11,4738,"truth_conditions","distinct",NA,"generic",14,"gold",50,"feathers","True","plovs"
"346",11,6614,"truth_conditions","danger",NA,"generic",15,"silver",70,"fur","True","morseths"
"347",11,7995,"truth_conditions","danger",NA,"generic",16,"yellow",30,"legs","True","ludinos"
"348",11,5460,"truth_conditions","distinct",NA,"generic",17,"purple",50,"tails","True","taifels"
"349",11,5624,"truth_conditions","distinct",NA,"generic",18,"blue",10,"scales","False","reesles"
"350",11,4431,"truth_conditions","irrelevant",NA,"generic",19,"copper",70,"fur","True","kweps"
"351",11,7367,"truth_conditions","irrelevant",NA,"generic",20,"purple",70,"shells","True","javs"
"352",11,4272,"truth_conditions","distinct",NA,"generic",21,"red",10,"spots","False","sapers"
"353",11,5045,"truth_conditions","irrelevant",NA,"generic",22,"silver",10,"stripes","False","frams"
"354",11,5601,"truth_conditions","danger",NA,"generic",23,"green",70,"shells","True","moxes"
"355",11,10490,"truth_conditions","distinct",NA,"generic",24,"pink",30,"ears","False","elleps"
"356",11,6059,"truth_conditions","irrelevant",NA,"generic",25,"green",30,"tails","False","trufts"
"357",11,6193,"truth_conditions","irrelevant",NA,"generic",26,"red",50,"feathers","True","noobs"
"358",11,4358,"truth_conditions","distinct",NA,"generic",27,"green",70,"teeth","True","zoovs"
"359",11,3515,"truth_conditions","distinct",NA,"generic",28,"yellow",30,"fur","False","ollers"
"360",11,5150,"truth_conditions","danger",NA,"generic",29,"red",30,"scales","True","blins"
"361",12,15200,"truth_conditions","danger",NA,"generic",0,"pink",30,"teeth","True","krivels"
"362",12,11726,"truth_conditions","danger",NA,"generic",1,"orange",10,"tails","True","zorbs"
"363",12,7839,"truth_conditions","irrelevant",NA,"generic",2,"gold",90,"spots","True","stups"
"364",12,10353,"truth_conditions","danger",NA,"generic",3,"green",30,"shells","True","moxes"
"365",12,28352,"truth_conditions","distinct",NA,"generic",4,"yellow",50,"fur","True","ollers"
"366",12,45425,"truth_conditions","danger",NA,"generic",5,"red",90,"scales","True","blins"
"367",12,7575,"truth_conditions","irrelevant",NA,"generic",6,"orange",10,"ears","True","kazzes"
"368",12,98071,"truth_conditions","distinct",NA,"generic",7,"copper",30,"stripes","True","mooks"
"369",12,12280,"truth_conditions","distinct",NA,"generic",8,"red",30,"spots","True","sapers"
"370",12,111746,"truth_conditions","irrelevant",NA,"generic",9,"silver",50,"stripes","True","frams"
"371",12,8799,"truth_conditions","danger",NA,"generic",10,"blue",90,"ears","True","cheebas"
"372",12,107946,"truth_conditions","distinct",NA,"generic",11,"blue",90,"scales","True","reesles"
"373",12,3935,"truth_conditions","irrelevant",NA,"generic",12,"red",70,"feathers","True","noobs"
"374",12,11958,"truth_conditions","distinct",NA,"generic",13,"orange",70,"shells","True","luzaks"
"375",12,11968,"truth_conditions","danger",NA,"generic",14,"purple",70,"feathers","True","lorches"
"376",12,15040,"truth_conditions","irrelevant",NA,"generic",15,"green",70,"tails","True","trufts"
"377",12,27632,"truth_conditions","distinct",NA,"generic",16,"purple",10,"tails","True","taifels"
"378",12,2719,"truth_conditions","distinct",NA,"generic",17,"green",70,"teeth","True","zoovs"
"379",12,2481,"truth_conditions","irrelevant",NA,"generic",18,"blue",50,"teeth","True","thups"
"380",12,2991,"truth_conditions","danger",NA,"generic",19,"copper",50,"spots","True","glippets"
"381",12,4398,"truth_conditions","distinct",NA,"generic",20,"silver",50,"legs","True","ackles"
"382",12,2825,"truth_conditions","danger",NA,"generic",21,"yellow",50,"legs","True","ludinos"
"383",12,1903,"truth_conditions","distinct",NA,"generic",22,"gold",90,"feathers","True","plovs"
"384",12,6456,"truth_conditions","irrelevant",NA,"generic",23,"yellow",30,"scales","True","dorbs"
"385",12,3888,"truth_conditions","distinct",NA,"generic",24,"pink",10,"ears","True","elleps"
"386",12,4055,"truth_conditions","danger",NA,"generic",25,"silver",10,"fur","True","morseths"
"387",12,9394,"truth_conditions","irrelevant",NA,"generic",26,"copper",10,"fur","True","kweps"
"388",12,20015,"truth_conditions","danger",NA,"generic",27,"gold",70,"stripes","True","daiths"
"389",12,10392,"truth_conditions","irrelevant",NA,"generic",28,"purple",90,"shells","True","javs"
"390",12,2088,"truth_conditions","irrelevant",NA,"generic",29,"pink",30,"legs","True","feps"
"391",13,12220,"truth_conditions","danger",NA,"some",0,"purple",70,"feathers","True","lorches"
"392",13,6513,"truth_conditions","distinct",NA,"some",1,"green",30,"teeth","True","zoovs"
"393",13,6060,"truth_conditions","distinct",NA,"some",2,"orange",10,"shells","True","luzaks"
"394",13,5864,"truth_conditions","danger",NA,"some",3,"silver",90,"fur","True","morseths"
"395",13,5636,"truth_conditions","distinct",NA,"some",4,"silver",90,"legs","True","ackles"
"396",13,4330,"truth_conditions","irrelevant",NA,"some",5,"yellow",50,"scales","True","dorbs"
"397",13,4607,"truth_conditions","irrelevant",NA,"some",6,"gold",10,"spots","True","stups"
"398",13,6053,"truth_conditions","danger",NA,"some",7,"red",50,"scales","True","blins"
"399",13,4299,"truth_conditions","distinct",NA,"some",8,"gold",50,"feathers","True","plovs"
"400",13,4280,"truth_conditions","irrelevant",NA,"some",9,"purple",90,"shells","True","javs"
"401",13,4239,"truth_conditions","danger",NA,"some",10,"yellow",70,"legs","True","ludinos"
"402",13,5304,"truth_conditions","irrelevant",NA,"some",11,"orange",10,"ears","True","kazzes"
"403",13,4550,"truth_conditions","irrelevant",NA,"some",12,"silver",70,"stripes","True","frams"
"404",13,4800,"truth_conditions","danger",NA,"some",13,"orange",30,"tails","True","zorbs"
"405",13,4934,"truth_conditions","irrelevant",NA,"some",14,"green",50,"tails","True","trufts"
"406",13,2796,"truth_conditions","danger",NA,"some",15,"gold",30,"stripes","True","daiths"
"407",13,2292,"truth_conditions","distinct",NA,"some",16,"purple",70,"tails","True","taifels"
"408",13,2975,"truth_conditions","distinct",NA,"some",17,"blue",50,"scales","True","reesles"
"409",13,3803,"truth_conditions","danger",NA,"some",18,"copper",90,"spots","True","glippets"
"410",13,4350,"truth_conditions","irrelevant",NA,"some",19,"red",70,"feathers","True","noobs"
"411",13,3722,"truth_conditions","distinct",NA,"some",20,"copper",10,"stripes","True","mooks"
"412",13,2512,"truth_conditions","distinct",NA,"some",21,"yellow",30,"fur","True","ollers"
"413",13,2400,"truth_conditions","danger",NA,"some",22,"green",10,"shells","True","moxes"
"414",13,2330,"truth_conditions","irrelevant",NA,"some",23,"pink",30,"legs","True","feps"
"415",13,2870,"truth_conditions","irrelevant",NA,"some",24,"blue",30,"teeth","True","thups"
"416",13,2356,"truth_conditions","distinct",NA,"some",25,"pink",90,"ears","True","elleps"
"417",13,3821,"truth_conditions","irrelevant",NA,"some",26,"copper",90,"fur","True","kweps"
"418",13,2734,"truth_conditions","danger",NA,"some",27,"pink",10,"teeth","True","krivels"
"419",13,3743,"truth_conditions","distinct",NA,"some",28,"red",70,"spots","True","sapers"
"420",13,2426,"truth_conditions","danger",NA,"some",29,"blue",50,"ears","True","cheebas"
"421",14,14572,"implied_prevalence","irrelevant",0,"most",NA,"yellow",NA,"scales","90","dorbs"
"422",14,14635,"implied_prevalence","danger",1,"most",NA,"silver",NA,"fur","95","morseths"
"423",14,8901,"implied_prevalence","danger",2,"most",NA,"gold",NA,"stripes","99","daiths"
"424",14,9950,"implied_prevalence","distinct",3,"most",NA,"purple",NA,"tails","98","taifels"
"425",14,15085,"implied_prevalence","danger",4,"most",NA,"orange",NA,"tails","92","zorbs"
"426",14,21348,"implied_prevalence","distinct",5,"most",NA,"yellow",NA,"fur","85","ollers"
"427",14,19084,"implied_prevalence","danger",6,"most",NA,"copper",NA,"spots","75","glippets"
"428",14,14481,"implied_prevalence","danger",7,"most",NA,"yellow",NA,"legs","99","ludinos"
"429",14,15717,"implied_prevalence","irrelevant",8,"most",NA,"blue",NA,"teeth","99","thups"
"430",14,9920,"implied_prevalence","distinct",9,"most",NA,"red",NA,"spots","90","sapers"
"431",14,14793,"implied_prevalence","irrelevant",10,"most",NA,"red",NA,"feathers","89","noobs"
"432",14,13960,"implied_prevalence","distinct",11,"most",NA,"green",NA,"teeth","89","zoovs"
"433",14,10071,"implied_prevalence","irrelevant",12,"most",NA,"orange",NA,"ears","95","kazzes"
"434",14,11004,"implied_prevalence","irrelevant",13,"most",NA,"purple",NA,"shells","98","javs"
"435",14,11914,"implied_prevalence","danger",14,"most",NA,"pink",NA,"teeth","96","krivels"
"436",14,15898,"implied_prevalence","distinct",15,"most",NA,"silver",NA,"legs","96","ackles"
"437",14,32066,"implied_prevalence","irrelevant",16,"most",NA,"silver",NA,"stripes","92","frams"
"438",14,13085,"implied_prevalence","irrelevant",17,"most",NA,"pink",NA,"legs","99","feps"
"439",14,7175,"implied_prevalence","distinct",18,"most",NA,"blue",NA,"scales","98","reesles"
"440",14,8257,"implied_prevalence","danger",19,"most",NA,"blue",NA,"ears","99","cheebas"
"441",14,10453,"implied_prevalence","distinct",20,"most",NA,"orange",NA,"shells","79","luzaks"
"442",14,10065,"implied_prevalence","distinct",21,"most",NA,"pink",NA,"ears","99","elleps"
"443",14,7011,"implied_prevalence","distinct",22,"most",NA,"gold",NA,"feathers","98","plovs"
"444",14,6917,"implied_prevalence","irrelevant",23,"most",NA,"green",NA,"tails","98","trufts"
"445",14,8515,"implied_prevalence","distinct",24,"most",NA,"copper",NA,"stripes","96","mooks"
"446",14,8464,"implied_prevalence","danger",25,"most",NA,"purple",NA,"feathers","90","lorches"
"447",14,8122,"implied_prevalence","danger",26,"most",NA,"green",NA,"shells","99","moxes"
"448",14,11122,"implied_prevalence","irrelevant",27,"most",NA,"gold",NA,"spots","99","stups"
"449",14,9444,"implied_prevalence","danger",28,"most",NA,"red",NA,"scales","92","blins"
"450",14,6952,"implied_prevalence","irrelevant",29,"most",NA,"copper",NA,"fur","99","kweps"
"451",15,13975,"truth_conditions","danger",NA,"most",0,"red",30,"scales","False","blins"
"452",15,15519,"truth_conditions","danger",NA,"most",1,"pink",70,"teeth","True","krivels"
"453",15,7491,"truth_conditions","danger",NA,"most",2,"copper",10,"spots","False","glippets"
"454",15,7172,"truth_conditions","irrelevant",NA,"most",3,"red",10,"feathers","False","noobs"
"455",15,4051,"truth_conditions","danger",NA,"most",4,"orange",70,"tails","True","zorbs"
"456",15,9353,"truth_conditions","danger",NA,"most",5,"gold",10,"stripes","False","daiths"
"457",15,8434,"truth_conditions","irrelevant",NA,"most",6,"yellow",90,"scales","True","dorbs"
"458",15,13509,"truth_conditions","irrelevant",NA,"most",7,"gold",50,"spots","False","stups"
"459",15,8147,"truth_conditions","distinct",NA,"most",8,"silver",70,"legs","True","ackles"
"460",15,5068,"truth_conditions","danger",NA,"most",9,"green",90,"shells","True","moxes"
"461",15,3562,"truth_conditions","distinct",NA,"most",10,"purple",90,"tails","True","taifels"
"462",15,5801,"truth_conditions","irrelevant",NA,"most",11,"orange",50,"ears","False","kazzes"
"463",15,12155,"truth_conditions","distinct",NA,"most",12,"copper",10,"stripes","False","mooks"
"464",15,5542,"truth_conditions","danger",NA,"most",13,"blue",30,"ears","False","cheebas"
"465",15,4351,"truth_conditions","danger",NA,"most",14,"yellow",90,"legs","True","ludinos"
"466",15,4321,"truth_conditions","distinct",NA,"most",15,"pink",90,"ears","True","elleps"
"467",15,3891,"truth_conditions","distinct",NA,"most",16,"gold",50,"feathers","False","plovs"
"468",15,6858,"truth_conditions","irrelevant",NA,"most",17,"pink",10,"legs","False","feps"
"469",15,4526,"truth_conditions","danger",NA,"most",18,"silver",50,"fur","False","morseths"
"470",15,4172,"truth_conditions","distinct",NA,"most",19,"blue",30,"scales","False","reesles"
"471",15,5294,"truth_conditions","distinct",NA,"most",20,"red",10,"spots","False","sapers"
"472",15,3893,"truth_conditions","irrelevant",NA,"most",21,"green",30,"tails","False","trufts"
"473",15,4720,"truth_conditions","irrelevant",NA,"most",22,"silver",70,"stripes","True","frams"
"474",15,3989,"truth_conditions","distinct",NA,"most",23,"green",70,"teeth","True","zoovs"
"475",15,4970,"truth_conditions","distinct",NA,"most",24,"orange",50,"shells","False","luzaks"
"476",15,4051,"truth_conditions","distinct",NA,"most",25,"yellow",30,"fur","False","ollers"
"477",15,3980,"truth_conditions","danger",NA,"most",26,"purple",50,"feathers","False","lorches"
"478",15,8757,"truth_conditions","irrelevant",NA,"most",27,"blue",70,"teeth","True","thups"
"479",15,7293,"truth_conditions","irrelevant",NA,"most",28,"copper",30,"fur","False","kweps"
"480",15,3474,"truth_conditions","irrelevant",NA,"most",29,"purple",90,"shells","True","javs"
"481",16,6833,"implied_prevalence","distinct",0,"generic",NA,"silver",NA,"legs","100","ackles"
"482",16,6655,"implied_prevalence","irrelevant",1,"generic",NA,"yellow",NA,"scales","100","dorbs"
"483",16,6056,"implied_prevalence","distinct",2,"generic",NA,"purple",NA,"tails","100","taifels"
"484",16,6226,"implied_prevalence","irrelevant",3,"generic",NA,"copper",NA,"fur","100","kweps"
"485",16,6990,"implied_prevalence","danger",4,"generic",NA,"red",NA,"scales","100","blins"
"486",16,5178,"implied_prevalence","danger",5,"generic",NA,"purple",NA,"feathers","100","lorches"
"487",16,5176,"implied_prevalence","danger",6,"generic",NA,"orange",NA,"tails","100","zorbs"
"488",16,5496,"implied_prevalence","danger",7,"generic",NA,"pink",NA,"teeth","100","krivels"
"489",16,30262,"implied_prevalence","distinct",8,"generic",NA,"gold",NA,"feathers","100","plovs"
"490",16,5116,"implied_prevalence","irrelevant",9,"generic",NA,"gold",NA,"spots","100","stups"
"491",16,4155,"implied_prevalence","irrelevant",10,"generic",NA,"blue",NA,"teeth","100","thups"
"492",16,3962,"implied_prevalence","distinct",11,"generic",NA,"green",NA,"teeth","100","zoovs"
"493",16,4966,"implied_prevalence","irrelevant",12,"generic",NA,"silver",NA,"stripes","100","frams"
"494",16,4904,"implied_prevalence","distinct",13,"generic",NA,"pink",NA,"ears","100","elleps"
"495",16,6750,"implied_prevalence","distinct",14,"generic",NA,"red",NA,"spots","100","sapers"
"496",16,4942,"implied_prevalence","danger",15,"generic",NA,"silver",NA,"fur","100","morseths"
"497",16,6314,"implied_prevalence","danger",16,"generic",NA,"copper",NA,"spots","100","glippets"
"498",16,4460,"implied_prevalence","irrelevant",17,"generic",NA,"pink",NA,"legs","100","feps"
"499",16,4718,"implied_prevalence","irrelevant",18,"generic",NA,"red",NA,"feathers","100","noobs"
"500",16,5426,"implied_prevalence","distinct",19,"generic",NA,"yellow",NA,"fur","100","ollers"
"501",16,10260,"implied_prevalence","distinct",20,"generic",NA,"blue",NA,"scales","100","reesles"
"502",16,5698,"implied_prevalence","irrelevant",21,"generic",NA,"orange",NA,"ears","100","kazzes"
"503",16,7584,"implied_prevalence","distinct",22,"generic",NA,"orange",NA,"shells","100","luzaks"
"504",16,5028,"implied_prevalence","danger",23,"generic",NA,"yellow",NA,"legs","100","ludinos"
"505",16,6275,"implied_prevalence","irrelevant",24,"generic",NA,"purple",NA,"shells","100","javs"
"506",16,6157,"implied_prevalence","distinct",25,"generic",NA,"copper",NA,"stripes","100","mooks"
"507",16,4786,"implied_prevalence","danger",26,"generic",NA,"gold",NA,"stripes","100","daiths"
"508",16,4968,"implied_prevalence","danger",27,"generic",NA,"blue",NA,"ears","100","cheebas"
"509",16,4864,"implied_prevalence","danger",28,"generic",NA,"green",NA,"shells","100","moxes"
"510",16,4515,"implied_prevalence","irrelevant",29,"generic",NA,"green",NA,"tails","100","trufts"
"511",17,8529,"truth_conditions","irrelevant",NA,"generic",0,"blue",50,"teeth","True","thups"
"512",17,5009,"truth_conditions","danger",NA,"generic",1,"silver",50,"fur","True","morseths"
"513",17,4261,"truth_conditions","danger",NA,"generic",2,"green",10,"shells","False","moxes"
"514",17,32403,"truth_conditions","irrelevant",NA,"generic",3,"green",90,"tails","True","trufts"
"515",17,8913,"truth_conditions","danger",NA,"generic",4,"orange",90,"tails","True","zorbs"
"516",17,5645,"truth_conditions","distinct",NA,"generic",5,"pink",10,"ears","False","elleps"
"517",17,3969,"truth_conditions","irrelevant",NA,"generic",6,"purple",10,"shells","False","javs"
"518",17,3733,"truth_conditions","irrelevant",NA,"generic",7,"pink",70,"legs","True","feps"
"519",17,2144,"truth_conditions","danger",NA,"generic",8,"pink",50,"teeth","True","krivels"
"520",17,2770,"truth_conditions","irrelevant",NA,"generic",9,"copper",90,"fur","True","kweps"
"521",17,4075,"truth_conditions","distinct",NA,"generic",10,"copper",90,"stripes","True","mooks"
"522",17,10056,"truth_conditions","irrelevant",NA,"generic",11,"red",30,"feathers","False","noobs"
"523",17,8479,"truth_conditions","danger",NA,"generic",12,"yellow",70,"legs","True","ludinos"
"524",17,3151,"truth_conditions","distinct",NA,"generic",13,"gold",10,"feathers","False","plovs"
"525",17,2111,"truth_conditions","distinct",NA,"generic",14,"orange",70,"shells","True","luzaks"
"526",17,3226,"truth_conditions","irrelevant",NA,"generic",15,"yellow",50,"scales","True","dorbs"
"527",17,28797,"truth_conditions","distinct",NA,"generic",16,"red",50,"spots","True","sapers"
"528",17,3348,"truth_conditions","distinct",NA,"generic",17,"blue",30,"scales","False","reesles"
"529",17,2845,"truth_conditions","distinct",NA,"generic",18,"green",50,"teeth","True","zoovs"
"530",17,2599,"truth_conditions","danger",NA,"generic",19,"red",30,"scales","False","blins"
"531",17,3027,"truth_conditions","danger",NA,"generic",20,"blue",30,"ears","False","cheebas"
"532",17,2543,"truth_conditions","distinct",NA,"generic",21,"silver",30,"legs","False","ackles"
"533",17,3076,"truth_conditions","danger",NA,"generic",22,"purple",70,"feathers","True","lorches"
"534",17,2644,"truth_conditions","distinct",NA,"generic",23,"purple",70,"tails","True","taifels"
"535",17,2493,"truth_conditions","danger",NA,"generic",24,"copper",90,"spots","True","glippets"
"536",17,2098,"truth_conditions","danger",NA,"generic",25,"gold",10,"stripes","False","daiths"
"537",17,2470,"truth_conditions","irrelevant",NA,"generic",26,"orange",30,"ears","False","kazzes"
"538",17,2865,"truth_conditions","irrelevant",NA,"generic",27,"gold",70,"spots","True","stups"
"539",17,3882,"truth_conditions","distinct",NA,"generic",28,"yellow",90,"fur","True","ollers"
"540",17,2155,"truth_conditions","irrelevant",NA,"generic",29,"silver",10,"stripes","False","frams"
"541",18,4091,"implied_prevalence","danger",0,"generic",NA,"silver",NA,"fur","55","morseths"
"542",18,3544,"implied_prevalence","danger",1,"generic",NA,"pink",NA,"teeth","55","krivels"
"543",18,2960,"implied_prevalence","irrelevant",2,"generic",NA,"gold",NA,"spots","60","stups"
"544",18,2629,"implied_prevalence","irrelevant",3,"generic",NA,"blue",NA,"teeth","80","thups"
"545",18,12709,"implied_prevalence","distinct",4,"generic",NA,"silver",NA,"legs","60","ackles"
"546",18,3326,"implied_prevalence","irrelevant",5,"generic",NA,"yellow",NA,"scales","90","dorbs"
"547",18,4072,"implied_prevalence","irrelevant",6,"generic",NA,"copper",NA,"fur","90","kweps"
"548",18,2530,"implied_prevalence","irrelevant",7,"generic",NA,"orange",NA,"ears","90","kazzes"
"549",18,2599,"implied_prevalence","danger",8,"generic",NA,"green",NA,"shells","55","moxes"
"550",18,2761,"implied_prevalence","danger",9,"generic",NA,"purple",NA,"feathers","55","lorches"
"551",18,3372,"implied_prevalence","irrelevant",10,"generic",NA,"red",NA,"feathers","80","noobs"
"552",18,3823,"implied_prevalence","danger",11,"generic",NA,"copper",NA,"spots","55","glippets"
"553",18,3376,"implied_prevalence","irrelevant",12,"generic",NA,"green",NA,"tails","80","trufts"
"554",18,4743,"implied_prevalence","irrelevant",13,"generic",NA,"silver",NA,"stripes","86","frams"
"555",18,4671,"implied_prevalence","irrelevant",14,"generic",NA,"purple",NA,"shells","69","javs"
"556",18,2596,"implied_prevalence","distinct",15,"generic",NA,"orange",NA,"shells","80","luzaks"
"557",18,2939,"implied_prevalence","distinct",16,"generic",NA,"purple",NA,"tails","80","taifels"
"558",18,2510,"implied_prevalence","danger",17,"generic",NA,"yellow",NA,"legs","55","ludinos"
"559",18,3758,"implied_prevalence","danger",18,"generic",NA,"orange",NA,"tails","69","zorbs"
"560",18,4582,"implied_prevalence","danger",19,"generic",NA,"gold",NA,"stripes","55","daiths"
"561",18,2496,"implied_prevalence","danger",20,"generic",NA,"blue",NA,"ears","54","cheebas"
"562",18,3205,"implied_prevalence","distinct",21,"generic",NA,"red",NA,"spots","60","sapers"
"563",18,2664,"implied_prevalence","distinct",22,"generic",NA,"green",NA,"teeth","77","zoovs"
"564",18,2578,"implied_prevalence","danger",23,"generic",NA,"red",NA,"scales","60","blins"
"565",18,2816,"implied_prevalence","distinct",24,"generic",NA,"pink",NA,"ears","90","elleps"
"566",18,2656,"implied_prevalence","distinct",25,"generic",NA,"blue",NA,"scales","80","reesles"
"567",18,2566,"implied_prevalence","irrelevant",26,"generic",NA,"pink",NA,"legs","70","feps"
"568",18,1980,"implied_prevalence","distinct",27,"generic",NA,"yellow",NA,"fur","80","ollers"
"569",18,1986,"implied_prevalence","distinct",28,"generic",NA,"gold",NA,"feathers","80","plovs"
"570",18,2011,"implied_prevalence","distinct",29,"generic",NA,"copper",NA,"stripes","90","mooks"
"571",19,8148,"truth_conditions","irrelevant",NA,"some",0,"orange",90,"ears","True","kazzes"
"572",19,10963,"truth_conditions","danger",NA,"some",1,"gold",10,"stripes","True","daiths"
"573",19,9071,"truth_conditions","distinct",NA,"some",2,"blue",70,"scales","True","reesles"
"574",19,56934,"truth_conditions","irrelevant",NA,"some",3,"purple",70,"shells","True","javs"
"575",19,142988,"truth_conditions","danger",NA,"some",4,"pink",50,"teeth","True","krivels"
"576",19,15575,"truth_conditions","irrelevant",NA,"some",5,"red",10,"feathers","True","noobs"
"577",19,5100,"truth_conditions","irrelevant",NA,"some",6,"yellow",30,"scales","True","dorbs"
"578",19,4138,"truth_conditions","danger",NA,"some",7,"copper",30,"spots","True","glippets"
"579",19,5547,"truth_conditions","danger",NA,"some",8,"yellow",90,"legs","True","ludinos"
"580",19,3190,"truth_conditions","distinct",NA,"some",9,"red",10,"spots","True","sapers"
"581",19,2552,"truth_conditions","danger",NA,"some",10,"silver",70,"fur","True","morseths"
"582",19,5374,"truth_conditions","danger",NA,"some",11,"green",30,"shells","True","moxes"
"583",19,9064,"truth_conditions","distinct",NA,"some",12,"silver",90,"legs","True","ackles"
"584",19,26285,"truth_conditions","distinct",NA,"some",13,"gold",50,"feathers","True","plovs"
"585",19,3942,"truth_conditions","irrelevant",NA,"some",14,"gold",10,"spots","True","stups"
"586",19,30466,"truth_conditions","distinct",NA,"some",15,"green",30,"teeth","True","zoovs"
"587",19,24688,"truth_conditions","distinct",NA,"some",16,"purple",70,"tails","True","taifels"
"588",19,2328,"truth_conditions","danger",NA,"some",17,"blue",50,"ears","True","cheebas"
"589",19,2249,"truth_conditions","danger",NA,"some",18,"orange",70,"tails","True","zorbs"
"590",19,2260,"truth_conditions","distinct",NA,"some",19,"pink",90,"ears","True","elleps"
"591",19,2949,"truth_conditions","irrelevant",NA,"some",20,"pink",50,"legs","True","feps"
"592",19,2576,"truth_conditions","irrelevant",NA,"some",21,"blue",30,"teeth","True","thups"
"593",19,3417,"truth_conditions","distinct",NA,"some",22,"orange",10,"shells","True","luzaks"
"594",19,2475,"truth_conditions","danger",NA,"some",23,"red",90,"scales","True","blins"
"595",19,3432,"truth_conditions","distinct",NA,"some",24,"yellow",30,"fur","True","ollers"
"596",19,5043,"truth_conditions","danger",NA,"some",25,"purple",10,"feathers","True","lorches"
"597",19,2915,"truth_conditions","distinct",NA,"some",26,"copper",50,"stripes","True","mooks"
"598",19,2658,"truth_conditions","irrelevant",NA,"some",27,"silver",70,"stripes","True","frams"
"599",19,1960,"truth_conditions","irrelevant",NA,"some",28,"copper",90,"fur","True","kweps"
"600",19,3468,"truth_conditions","irrelevant",NA,"some",29,"green",50,"tails","True","trufts"
"601",20,9383,"truth_conditions","irrelevant",NA,"most",0,"silver",90,"stripes","True","frams"
"602",20,14316,"truth_conditions","distinct",NA,"most",1,"copper",50,"stripes","True","mooks"
"603",20,5671,"truth_conditions","irrelevant",NA,"most",2,"blue",70,"teeth","True","thups"
"604",20,3363,"truth_conditions","distinct",NA,"most",3,"red",30,"spots","False","sapers"
"605",20,5756,"truth_conditions","irrelevant",NA,"most",4,"red",90,"feathers","True","noobs"
"606",20,3633,"truth_conditions","distinct",NA,"most",5,"purple",90,"tails","True","taifels"
"607",20,3659,"truth_conditions","distinct",NA,"most",6,"orange",10,"shells","False","luzaks"
"608",20,2998,"truth_conditions","danger",NA,"most",7,"copper",10,"spots","False","glippets"
"609",20,4124,"truth_conditions","distinct",NA,"most",8,"pink",10,"ears","False","elleps"
"610",20,2766,"truth_conditions","irrelevant",NA,"most",9,"copper",30,"fur","False","kweps"
"611",20,7102,"truth_conditions","distinct",NA,"most",10,"blue",30,"scales","False","reesles"
"612",20,2027,"truth_conditions","danger",NA,"most",11,"green",90,"shells","True","moxes"
"613",20,1579,"truth_conditions","distinct",NA,"most",12,"yellow",70,"fur","True","ollers"
"614",20,3647,"truth_conditions","irrelevant",NA,"most",13,"green",50,"tails","True","trufts"
"615",20,4794,"truth_conditions","irrelevant",NA,"most",14,"gold",50,"spots","True","stups"
"616",20,4706,"truth_conditions","distinct",NA,"most",15,"gold",90,"feathers","True","plovs"
"617",20,2526,"truth_conditions","distinct",NA,"most",16,"green",70,"teeth","True","zoovs"
"618",20,2093,"truth_conditions","danger",NA,"most",17,"pink",50,"teeth","True","krivels"
"619",20,3488,"truth_conditions","danger",NA,"most",18,"red",30,"scales","False","blins"
"620",20,2274,"truth_conditions","danger",NA,"most",19,"yellow",30,"legs","False","ludinos"
"621",20,5159,"truth_conditions","irrelevant",NA,"most",20,"pink",30,"legs","False","feps"
"622",20,5929,"truth_conditions","danger",NA,"most",21,"purple",70,"feathers","True","lorches"
"623",20,2797,"truth_conditions","irrelevant",NA,"most",22,"purple",10,"shells","False","javs"
"624",20,2762,"truth_conditions","danger",NA,"most",23,"gold",70,"stripes","True","daiths"
"625",20,1784,"truth_conditions","irrelevant",NA,"most",24,"yellow",70,"scales","True","dorbs"
"626",20,7678,"truth_conditions","danger",NA,"most",25,"blue",90,"ears","True","cheebas"
"627",20,2574,"truth_conditions","irrelevant",NA,"most",26,"orange",10,"ears","False","kazzes"
"628",20,1923,"truth_conditions","danger",NA,"most",27,"orange",50,"tails","True","zorbs"
"629",20,8649,"truth_conditions","danger",NA,"most",28,"silver",10,"fur","False","morseths"
"630",20,2611,"truth_conditions","distinct",NA,"most",29,"silver",50,"legs","True","ackles"
"631",21,18587,"truth_conditions","irrelevant",NA,"generic",0,"copper",70,"fur","False","kweps"
"632",21,17143,"truth_conditions","distinct",NA,"generic",1,"yellow",30,"fur","False","ollers"
"633",21,22331,"truth_conditions","danger",NA,"generic",2,"copper",10,"spots","False","glippets"
"634",21,8335,"truth_conditions","irrelevant",NA,"generic",3,"orange",50,"ears","True","kazzes"
"635",21,11722,"truth_conditions","danger",NA,"generic",4,"pink",70,"teeth","False","krivels"
"636",21,10429,"truth_conditions","danger",NA,"generic",5,"orange",70,"tails","False","zorbs"
"637",21,14591,"truth_conditions","distinct",NA,"generic",6,"red",30,"spots","True","sapers"
"638",21,7160,"truth_conditions","danger",NA,"generic",7,"silver",50,"fur","False","morseths"
"639",21,10232,"truth_conditions","danger",NA,"generic",8,"red",90,"scales","False","blins"
"640",21,9169,"truth_conditions","distinct",NA,"generic",9,"gold",50,"feathers","True","plovs"
"641",21,13961,"truth_conditions","danger",NA,"generic",10,"gold",90,"stripes","True","daiths"
"642",21,14861,"truth_conditions","irrelevant",NA,"generic",11,"purple",50,"shells","True","javs"
"643",21,7301,"truth_conditions","danger",NA,"generic",12,"blue",30,"ears","True","cheebas"
"644",21,9281,"truth_conditions","distinct",NA,"generic",13,"silver",70,"legs","True","ackles"
"645",21,10688,"truth_conditions","distinct",NA,"generic",14,"green",90,"teeth","True","zoovs"
"646",21,10844,"truth_conditions","irrelevant",NA,"generic",15,"gold",10,"spots","False","stups"
"647",21,5219,"truth_conditions","distinct",NA,"generic",16,"orange",10,"shells","False","luzaks"
"648",21,10991,"truth_conditions","irrelevant",NA,"generic",17,"blue",30,"teeth","True","thups"
"649",21,4468,"truth_conditions","danger",NA,"generic",18,"yellow",30,"legs","True","ludinos"
"650",21,4363,"truth_conditions","irrelevant",NA,"generic",19,"pink",10,"legs","True","feps"
"651",21,8110,"truth_conditions","danger",NA,"generic",20,"purple",10,"feathers","True","lorches"
"652",21,9270,"truth_conditions","distinct",NA,"generic",21,"copper",10,"stripes","False","mooks"
"653",21,3938,"truth_conditions","danger",NA,"generic",22,"green",50,"shells","True","moxes"
"654",21,10560,"truth_conditions","distinct",NA,"generic",23,"blue",50,"scales","True","reesles"
"655",21,5426,"truth_conditions","irrelevant",NA,"generic",24,"silver",30,"stripes","False","frams"
"656",21,4275,"truth_conditions","irrelevant",NA,"generic",25,"green",70,"tails","True","trufts"
"657",21,7350,"truth_conditions","distinct",NA,"generic",26,"purple",70,"tails","True","taifels"
"658",21,3349,"truth_conditions","distinct",NA,"generic",27,"pink",90,"ears","True","elleps"
"659",21,5974,"truth_conditions","irrelevant",NA,"generic",28,"yellow",90,"scales","True","dorbs"
"660",21,7166,"truth_conditions","irrelevant",NA,"generic",29,"red",90,"feathers","True","noobs"
"661",22,16850,"implied_prevalence","irrelevant",0,"some",NA,"blue",NA,"teeth","70","thups"
"662",22,10513,"implied_prevalence","distinct",1,"some",NA,"red",NA,"spots","80","sapers"
"663",22,12416,"implied_prevalence","danger",2,"some",NA,"pink",NA,"teeth","50","krivels"
"664",22,10743,"implied_prevalence","irrelevant",3,"some",NA,"green",NA,"tails","95","trufts"
"665",22,9587,"implied_prevalence","danger",4,"some",NA,"orange",NA,"tails","65","zorbs"
"666",22,15094,"implied_prevalence","distinct",5,"some",NA,"copper",NA,"stripes","65","mooks"
"667",22,13190,"implied_prevalence","distinct",6,"some",NA,"pink",NA,"ears","35","elleps"
"668",22,8985,"implied_prevalence","irrelevant",7,"some",NA,"orange",NA,"ears","90","kazzes"
"669",22,8722,"implied_prevalence","irrelevant",8,"some",NA,"red",NA,"feathers","85","noobs"
"670",22,12065,"implied_prevalence","danger",9,"some",NA,"gold",NA,"stripes","90","daiths"
"671",22,10691,"implied_prevalence","distinct",10,"some",NA,"blue",NA,"scales","75","reesles"
"672",22,8728,"implied_prevalence","irrelevant",11,"some",NA,"pink",NA,"legs","90","feps"
"673",22,11258,"implied_prevalence","distinct",12,"some",NA,"gold",NA,"feathers","73","plovs"
"674",22,14691,"implied_prevalence","danger",13,"some",NA,"blue",NA,"ears","79","cheebas"
"675",22,12753,"implied_prevalence","irrelevant",14,"some",NA,"purple",NA,"shells","98","javs"
"676",22,9669,"implied_prevalence","distinct",15,"some",NA,"green",NA,"teeth","60","zoovs"
"677",22,13573,"implied_prevalence","distinct",16,"some",NA,"purple",NA,"tails","59","taifels"
"678",22,13854,"implied_prevalence","danger",17,"some",NA,"silver",NA,"fur","45","morseths"
"679",22,9209,"implied_prevalence","irrelevant",18,"some",NA,"silver",NA,"stripes","98","frams"
"680",22,10303,"implied_prevalence","distinct",19,"some",NA,"silver",NA,"legs","60","ackles"
"681",22,11685,"implied_prevalence","danger",20,"some",NA,"yellow",NA,"legs","55","ludinos"
"682",22,7975,"implied_prevalence","irrelevant",21,"some",NA,"yellow",NA,"scales","80","dorbs"
"683",22,8725,"implied_prevalence","danger",22,"some",NA,"red",NA,"scales","70","blins"
"684",22,13780,"implied_prevalence","danger",23,"some",NA,"purple",NA,"feathers","80","lorches"
"685",22,10794,"implied_prevalence","danger",24,"some",NA,"green",NA,"shells","45","moxes"
"686",22,8041,"implied_prevalence","distinct",25,"some",NA,"orange",NA,"shells","45","luzaks"
"687",22,9226,"implied_prevalence","distinct",26,"some",NA,"yellow",NA,"fur","50","ollers"
"688",22,9115,"implied_prevalence","irrelevant",27,"some",NA,"gold",NA,"spots","90","stups"
"689",22,16376,"implied_prevalence","danger",28,"some",NA,"copper",NA,"spots","76","glippets"
"690",22,7117,"implied_prevalence","irrelevant",29,"some",NA,"copper",NA,"fur","90","kweps"
"691",23,9685,"truth_conditions","distinct",NA,"generic",0,"blue",70,"scales","True","reesles"
"692",23,5792,"truth_conditions","irrelevant",NA,"generic",1,"yellow",50,"scales","True","dorbs"
"693",23,4972,"truth_conditions","irrelevant",NA,"generic",2,"red",30,"feathers","False","noobs"
"694",23,7073,"truth_conditions","danger",NA,"generic",3,"purple",90,"feathers","True","lorches"
"695",23,6092,"truth_conditions","distinct",NA,"generic",4,"gold",10,"feathers","False","plovs"
"696",23,4388,"truth_conditions","distinct",NA,"generic",5,"green",90,"teeth","True","zoovs"
"697",23,5753,"truth_conditions","distinct",NA,"generic",6,"red",30,"spots","False","sapers"
"698",23,5178,"truth_conditions","danger",NA,"generic",7,"red",10,"scales","False","blins"
"699",23,5819,"truth_conditions","distinct",NA,"generic",8,"purple",30,"tails","False","taifels"
"700",23,4011,"truth_conditions","irrelevant",NA,"generic",9,"orange",70,"ears","True","kazzes"
"701",23,3331,"truth_conditions","irrelevant",NA,"generic",10,"purple",50,"shells","True","javs"
"702",23,15847,"truth_conditions","irrelevant",NA,"generic",11,"gold",70,"spots","True","stups"
"703",23,8909,"truth_conditions","distinct",NA,"generic",12,"yellow",70,"fur","True","ollers"
"704",23,3000,"truth_conditions","irrelevant",NA,"generic",13,"silver",10,"stripes","False","frams"
"705",23,3336,"truth_conditions","danger",NA,"generic",14,"green",10,"shells","False","moxes"
"706",23,3257,"truth_conditions","danger",NA,"generic",15,"blue",50,"ears","True","cheebas"
"707",23,4878,"truth_conditions","distinct",NA,"generic",16,"copper",90,"stripes","True","mooks"
"708",23,3667,"truth_conditions","irrelevant",NA,"generic",17,"copper",10,"fur","False","kweps"
"709",23,3263,"truth_conditions","danger",NA,"generic",18,"gold",30,"stripes","False","daiths"
"710",23,4338,"truth_conditions","danger",NA,"generic",19,"copper",70,"spots","True","glippets"
"711",23,2762,"truth_conditions","danger",NA,"generic",20,"orange",50,"tails","True","zorbs"
"712",23,4668,"truth_conditions","distinct",NA,"generic",21,"orange",50,"shells","True","luzaks"
"713",23,2446,"truth_conditions","distinct",NA,"generic",22,"silver",10,"legs","False","ackles"
"714",23,4805,"truth_conditions","danger",NA,"generic",23,"pink",70,"teeth","True","krivels"
"715",23,5645,"truth_conditions","danger",NA,"generic",24,"yellow",30,"legs","False","ludinos"
"716",23,2887,"truth_conditions","irrelevant",NA,"generic",25,"blue",90,"teeth","True","thups"
"717",23,12705,"truth_conditions","distinct",NA,"generic",26,"pink",50,"ears","True","elleps"
"718",23,2743,"truth_conditions","irrelevant",NA,"generic",27,"pink",90,"legs","True","feps"
"719",23,3036,"truth_conditions","irrelevant",NA,"generic",28,"green",30,"tails","False","trufts"
"720",23,4845,"truth_conditions","danger",NA,"generic",29,"silver",90,"fur","True","morseths"
"721",24,7833,"implied_prevalence","danger",0,"generic",NA,"yellow",NA,"legs","100","ludinos"
"722",24,6800,"implied_prevalence","danger",1,"generic",NA,"red",NA,"scales","75","blins"
"723",24,6215,"implied_prevalence","irrelevant",2,"generic",NA,"yellow",NA,"scales","80","dorbs"
"724",24,6608,"implied_prevalence","irrelevant",3,"generic",NA,"blue",NA,"teeth","70","thups"
"725",24,8094,"implied_prevalence","irrelevant",4,"generic",NA,"gold",NA,"spots","5","stups"
"726",24,8040,"implied_prevalence","distinct",5,"generic",NA,"orange",NA,"shells","60","luzaks"
"727",24,9744,"implied_prevalence","danger",6,"generic",NA,"gold",NA,"stripes","15","daiths"
"728",24,4812,"implied_prevalence","irrelevant",7,"generic",NA,"pink",NA,"legs","45","feps"
"729",24,4788,"implied_prevalence","distinct",8,"generic",NA,"red",NA,"spots","5","sapers"
"730",24,5886,"implied_prevalence","distinct",9,"generic",NA,"copper",NA,"stripes","12","mooks"
"731",24,5757,"implied_prevalence","distinct",10,"generic",NA,"pink",NA,"ears","30","elleps"
"732",24,4300,"implied_prevalence","irrelevant",11,"generic",NA,"red",NA,"feathers","70","noobs"
"733",24,6541,"implied_prevalence","danger",12,"generic",NA,"orange",NA,"tails","70","zorbs"
"734",24,4159,"implied_prevalence","irrelevant",13,"generic",NA,"green",NA,"tails","40","trufts"
"735",24,2615,"implied_prevalence","irrelevant",14,"generic",NA,"purple",NA,"shells","30","javs"
"736",24,2948,"implied_prevalence","distinct",15,"generic",NA,"purple",NA,"tails","80","taifels"
"737",24,4474,"implied_prevalence","danger",16,"generic",NA,"green",NA,"shells","60","moxes"
"738",24,4470,"implied_prevalence","distinct",17,"generic",NA,"silver",NA,"legs","30","ackles"
"739",24,3132,"implied_prevalence","danger",18,"generic",NA,"blue",NA,"ears","100","cheebas"
"740",24,5412,"implied_prevalence","distinct",19,"generic",NA,"gold",NA,"feathers","13","plovs"
"741",24,2580,"implied_prevalence","danger",20,"generic",NA,"silver",NA,"fur","40","morseths"
"742",24,2576,"implied_prevalence","danger",21,"generic",NA,"copper",NA,"spots","70","glippets"
"743",24,4356,"implied_prevalence","distinct",22,"generic",NA,"green",NA,"teeth","78","zoovs"
"744",24,3230,"implied_prevalence","danger",23,"generic",NA,"purple",NA,"feathers","100","lorches"
"745",24,3788,"implied_prevalence","distinct",24,"generic",NA,"yellow",NA,"fur","30","ollers"
"746",24,3368,"implied_prevalence","irrelevant",25,"generic",NA,"orange",NA,"ears","24","kazzes"
"747",24,2754,"implied_prevalence","irrelevant",26,"generic",NA,"silver",NA,"stripes","30","frams"
"748",24,2236,"implied_prevalence","irrelevant",27,"generic",NA,"copper",NA,"fur","60","kweps"
"749",24,3004,"implied_prevalence","distinct",28,"generic",NA,"blue",NA,"scales","40","reesles"
"750",24,5449,"implied_prevalence","danger",29,"generic",NA,"pink",NA,"teeth","70","krivels"
"751",25,10136,"implied_prevalence","irrelevant",0,"some",NA,"silver",NA,"stripes","22","frams"
"752",25,5028,"implied_prevalence","irrelevant",1,"some",NA,"green",NA,"tails","55","trufts"
"753",25,3262,"implied_prevalence","irrelevant",2,"some",NA,"pink",NA,"legs","44","feps"
"754",25,6299,"implied_prevalence","irrelevant",3,"some",NA,"yellow",NA,"scales","25","dorbs"
"755",25,2892,"implied_prevalence","danger",4,"some",NA,"blue",NA,"ears","11","cheebas"
"756",25,3904,"implied_prevalence","danger",5,"some",NA,"red",NA,"scales","22","blins"
"757",25,3679,"implied_prevalence","danger",6,"some",NA,"yellow",NA,"legs","11","ludinos"
"758",25,3532,"implied_prevalence","danger",7,"some",NA,"copper",NA,"spots","15","glippets"
"759",25,4927,"implied_prevalence","distinct",8,"some",NA,"green",NA,"teeth","8","zoovs"
"760",25,3668,"implied_prevalence","irrelevant",9,"some",NA,"blue",NA,"teeth","7","thups"
"761",25,2768,"implied_prevalence","danger",10,"some",NA,"silver",NA,"fur","2","morseths"
"762",25,3205,"implied_prevalence","distinct",11,"some",NA,"copper",NA,"stripes","11","mooks"
"763",25,2250,"implied_prevalence","irrelevant",12,"some",NA,"red",NA,"feathers","11","noobs"
"764",25,2565,"implied_prevalence","irrelevant",13,"some",NA,"gold",NA,"spots","8","stups"
"765",25,2497,"implied_prevalence","distinct",14,"some",NA,"silver",NA,"legs","7","ackles"
"766",25,3645,"implied_prevalence","distinct",15,"some",NA,"purple",NA,"tails","4","taifels"
"767",25,2655,"implied_prevalence","danger",16,"some",NA,"pink",NA,"teeth","2","krivels"
"768",25,1665,"implied_prevalence","danger",17,"some",NA,"orange",NA,"tails","5","zorbs"
"769",25,1721,"implied_prevalence","distinct",18,"some",NA,"blue",NA,"scales","4","reesles"
"770",25,2734,"implied_prevalence","irrelevant",19,"some",NA,"copper",NA,"fur","6","kweps"
"771",25,2317,"implied_prevalence","danger",20,"some",NA,"green",NA,"shells","4","moxes"
"772",25,2014,"implied_prevalence","distinct",21,"some",NA,"yellow",NA,"fur","4","ollers"
"773",25,1293,"implied_prevalence","distinct",22,"some",NA,"pink",NA,"ears","4","elleps"
"774",25,1496,"implied_prevalence","irrelevant",23,"some",NA,"purple",NA,"shells","7","javs"
"775",25,1260,"implied_prevalence","distinct",24,"some",NA,"orange",NA,"shells","4","luzaks"
"776",25,1507,"implied_prevalence","distinct",25,"some",NA,"red",NA,"spots","1","sapers"
"777",25,1383,"implied_prevalence","danger",26,"some",NA,"gold",NA,"stripes","4","daiths"
"778",25,1429,"implied_prevalence","irrelevant",27,"some",NA,"orange",NA,"ears","5","kazzes"
"779",25,1429,"implied_prevalence","distinct",28,"some",NA,"gold",NA,"feathers","2","plovs"
"780",25,2081,"implied_prevalence","danger",29,"some",NA,"purple",NA,"feathers","4","lorches"
"781",26,11194,"implied_prevalence","distinct",0,"most",NA,"copper",NA,"stripes","90","mooks"
"782",26,6399,"implied_prevalence","danger",1,"most",NA,"yellow",NA,"legs","90","ludinos"
"783",26,4093,"implied_prevalence","irrelevant",2,"most",NA,"red",NA,"feathers","90","noobs"
"784",26,11735,"implied_prevalence","danger",3,"most",NA,"blue",NA,"ears","95","cheebas"
"785",26,5154,"implied_prevalence","danger",4,"most",NA,"orange",NA,"tails","95","zorbs"
"786",26,4171,"implied_prevalence","danger",5,"most",NA,"silver",NA,"fur","95","morseths"
"787",26,4259,"implied_prevalence","irrelevant",6,"most",NA,"gold",NA,"spots","90","stups"
"788",26,7500,"implied_prevalence","irrelevant",7,"most",NA,"blue",NA,"teeth","90","thups"
"789",26,3352,"implied_prevalence","danger",8,"most",NA,"purple",NA,"feathers","95","lorches"
"790",26,3609,"implied_prevalence","distinct",9,"most",NA,"red",NA,"spots","95","sapers"
"791",26,3984,"implied_prevalence","irrelevant",10,"most",NA,"green",NA,"tails","90","trufts"
"792",26,5201,"implied_prevalence","danger",11,"most",NA,"pink",NA,"teeth","90","krivels"
"793",26,3782,"implied_prevalence","distinct",12,"most",NA,"gold",NA,"feathers","90","plovs"
"794",26,5512,"implied_prevalence","irrelevant",13,"most",NA,"yellow",NA,"scales","95","dorbs"
"795",26,4203,"implied_prevalence","irrelevant",14,"most",NA,"pink",NA,"legs","90","feps"
"796",26,6339,"implied_prevalence","irrelevant",15,"most",NA,"silver",NA,"stripes","95","frams"
"797",26,7437,"implied_prevalence","distinct",16,"most",NA,"green",NA,"teeth","95","zoovs"
"798",26,4085,"implied_prevalence","danger",17,"most",NA,"gold",NA,"stripes","90","daiths"
"799",26,4172,"implied_prevalence","distinct",18,"most",NA,"blue",NA,"scales","95","reesles"
"800",26,2312,"implied_prevalence","distinct",19,"most",NA,"orange",NA,"shells","90","luzaks"
"801",26,10415,"implied_prevalence","distinct",20,"most",NA,"pink",NA,"ears","95","elleps"
"802",26,3093,"implied_prevalence","danger",21,"most",NA,"copper",NA,"spots","95","glippets"
"803",26,3823,"implied_prevalence","distinct",22,"most",NA,"silver",NA,"legs","90","ackles"
"804",26,6907,"implied_prevalence","danger",23,"most",NA,"red",NA,"scales","90","blins"
"805",26,85513,"implied_prevalence","irrelevant",24,"most",NA,"copper",NA,"fur","90","kweps"
"806",26,12655,"implied_prevalence","distinct",25,"most",NA,"purple",NA,"tails","95","taifels"
"807",26,18144,"implied_prevalence","irrelevant",26,"most",NA,"orange",NA,"ears","90","kazzes"
"808",26,16540,"implied_prevalence","irrelevant",27,"most",NA,"purple",NA,"shells","95","javs"
"809",26,4057,"implied_prevalence","distinct",28,"most",NA,"yellow",NA,"fur","90","ollers"
"810",26,10851,"implied_prevalence","danger",29,"most",NA,"green",NA,"shells","90","moxes"
"811",27,6628,"implied_prevalence","distinct",0,"generic",NA,"orange",NA,"shells","100","luzaks"
"812",27,14028,"implied_prevalence","danger",1,"generic",NA,"orange",NA,"tails","100","zorbs"
"813",27,2474,"implied_prevalence","danger",2,"generic",NA,"blue",NA,"ears","100","cheebas"
"814",27,2777,"implied_prevalence","danger",3,"generic",NA,"yellow",NA,"legs","100","ludinos"
"815",27,2309,"implied_prevalence","danger",4,"generic",NA,"green",NA,"shells","100","moxes"
"816",27,2558,"implied_prevalence","distinct",5,"generic",NA,"pink",NA,"ears","50","elleps"
"817",27,4185,"implied_prevalence","irrelevant",6,"generic",NA,"orange",NA,"ears","75","kazzes"
"818",27,3073,"implied_prevalence","distinct",7,"generic",NA,"blue",NA,"scales","100","reesles"
"819",27,12658,"implied_prevalence","distinct",8,"generic",NA,"red",NA,"spots","100","sapers"
"820",27,2882,"implied_prevalence","irrelevant",9,"generic",NA,"blue",NA,"teeth","90","thups"
"821",27,3419,"implied_prevalence","danger",10,"generic",NA,"red",NA,"scales","60","blins"
"822",27,4030,"implied_prevalence","distinct",11,"generic",NA,"silver",NA,"legs","50","ackles"
"823",27,2877,"implied_prevalence","irrelevant",12,"generic",NA,"red",NA,"feathers","30","noobs"
"824",27,3442,"implied_prevalence","danger",13,"generic",NA,"silver",NA,"fur","50","morseths"
"825",27,25925,"implied_prevalence","danger",14,"generic",NA,"purple",NA,"feathers","60","lorches"
"826",27,2525,"implied_prevalence","irrelevant",15,"generic",NA,"pink",NA,"legs","50","feps"
"827",27,2316,"implied_prevalence","distinct",16,"generic",NA,"copper",NA,"stripes","50","mooks"
"828",27,3462,"implied_prevalence","danger",17,"generic",NA,"gold",NA,"stripes","10","daiths"
"829",27,3090,"implied_prevalence","irrelevant",18,"generic",NA,"gold",NA,"spots","70","stups"
"830",27,53149,"implied_prevalence","irrelevant",19,"generic",NA,"yellow",NA,"scales","90","dorbs"
"831",27,55469,"implied_prevalence","distinct",20,"generic",NA,"purple",NA,"tails","50","taifels"
"832",27,3065,"implied_prevalence","irrelevant",21,"generic",NA,"green",NA,"tails","90","trufts"
"833",27,2899,"implied_prevalence","distinct",22,"generic",NA,"gold",NA,"feathers","100","plovs"
"834",27,2081,"implied_prevalence","irrelevant",23,"generic",NA,"silver",NA,"stripes","100","frams"
"835",27,2750,"implied_prevalence","danger",24,"generic",NA,"copper",NA,"spots","20","glippets"
"836",27,2360,"implied_prevalence","distinct",25,"generic",NA,"yellow",NA,"fur","100","ollers"
"837",27,24808,"implied_prevalence","distinct",26,"generic",NA,"green",NA,"teeth","100","zoovs"
"838",27,2812,"implied_prevalence","danger",27,"generic",NA,"pink",NA,"teeth","20","krivels"
"839",27,2772,"implied_prevalence","irrelevant",28,"generic",NA,"purple",NA,"shells","100","javs"
"840",27,2292,"implied_prevalence","irrelevant",29,"generic",NA,"copper",NA,"fur","100","kweps"
"841",28,11899,"truth_conditions","irrelevant",NA,"most",0,"red",70,"feathers","True","noobs"
"842",28,12412,"truth_conditions","distinct",NA,"most",1,"copper",90,"stripes","True","mooks"
"843",28,11319,"truth_conditions","danger",NA,"most",2,"blue",30,"ears","False","cheebas"
"844",28,10197,"truth_conditions","distinct",NA,"most",3,"silver",30,"legs","False","ackles"
"845",28,7014,"truth_conditions","distinct",NA,"most",4,"purple",50,"tails","False","taifels"
"846",28,7522,"truth_conditions","distinct",NA,"most",5,"gold",70,"feathers","True","plovs"
"847",28,9533,"truth_conditions","distinct",NA,"most",6,"red",50,"spots","False","sapers"
"848",28,11082,"truth_conditions","danger",NA,"most",7,"green",50,"shells","False","moxes"
"849",28,8973,"truth_conditions","danger",NA,"most",8,"orange",30,"tails","False","zorbs"
"850",28,10810,"truth_conditions","danger",NA,"most",9,"copper",70,"spots","True","glippets"
"851",28,7258,"truth_conditions","danger",NA,"most",10,"pink",70,"teeth","True","krivels"
"852",28,5385,"truth_conditions","irrelevant",NA,"most",11,"purple",70,"shells","True","javs"
"853",28,10160,"truth_conditions","irrelevant",NA,"most",12,"green",30,"tails","False","trufts"
"854",28,7723,"truth_conditions","distinct",NA,"most",13,"blue",30,"scales","False","reesles"
"855",28,5030,"truth_conditions","irrelevant",NA,"most",14,"gold",90,"spots","True","stups"
"856",28,6672,"truth_conditions","irrelevant",NA,"most",15,"silver",50,"stripes","False","frams"
"857",28,6972,"truth_conditions","irrelevant",NA,"most",16,"copper",10,"fur","False","kweps"
"858",28,6665,"truth_conditions","irrelevant",NA,"most",17,"blue",50,"teeth","False","thups"
"859",28,5457,"truth_conditions","distinct",NA,"most",18,"orange",70,"shells","True","luzaks"
"860",28,10334,"truth_conditions","danger",NA,"most",19,"gold",10,"stripes","False","daiths"
"861",28,8032,"truth_conditions","danger",NA,"most",20,"red",50,"scales","False","blins"
"862",28,6510,"truth_conditions","irrelevant",NA,"most",21,"orange",10,"ears","False","kazzes"
"863",28,8380,"truth_conditions","irrelevant",NA,"most",22,"yellow",90,"scales","True","dorbs"
"864",28,7132,"truth_conditions","danger",NA,"most",23,"yellow",90,"legs","True","ludinos"
"865",28,14197,"truth_conditions","distinct",NA,"most",24,"pink",90,"ears","True","elleps"
"866",28,5995,"truth_conditions","distinct",NA,"most",25,"green",10,"teeth","False","zoovs"
"867",28,11798,"truth_conditions","danger",NA,"most",26,"silver",90,"fur","True","morseths"
"868",28,8652,"truth_conditions","irrelevant",NA,"most",27,"pink",30,"legs","False","feps"
"869",28,4815,"truth_conditions","distinct",NA,"most",28,"yellow",10,"fur","False","ollers"
"870",28,7833,"truth_conditions","danger",NA,"most",29,"purple",10,"feathers","False","lorches"
"871",29,96859,"implied_prevalence","irrelevant",0,"most",NA,"yellow",NA,"scales","80","dorbs"
"872",29,15703,"implied_prevalence","distinct",1,"most",NA,"green",NA,"teeth","90","zoovs"
"873",29,7088,"implied_prevalence","danger",2,"most",NA,"green",NA,"shells","90","moxes"
"874",29,8032,"implied_prevalence","irrelevant",3,"most",NA,"red",NA,"feathers","90","noobs"
"875",29,4936,"implied_prevalence","distinct",4,"most",NA,"gold",NA,"feathers","90","plovs"
"876",29,6409,"implied_prevalence","distinct",5,"most",NA,"blue",NA,"scales","90","reesles"
"877",29,6647,"implied_prevalence","distinct",6,"most",NA,"red",NA,"spots","90","sapers"
"878",29,6192,"implied_prevalence","irrelevant",7,"most",NA,"pink",NA,"legs","90","feps"
"879",29,4240,"implied_prevalence","irrelevant",8,"most",NA,"silver",NA,"stripes","90","frams"
"880",29,6048,"implied_prevalence","danger",9,"most",NA,"blue",NA,"ears","90","cheebas"
"881",29,4647,"implied_prevalence","danger",10,"most",NA,"copper",NA,"spots","90","glippets"
"882",29,6161,"implied_prevalence","danger",11,"most",NA,"orange",NA,"tails","90","zorbs"
"883",29,7095,"implied_prevalence","irrelevant",12,"most",NA,"green",NA,"tails","90","trufts"
"884",29,42992,"implied_prevalence","irrelevant",13,"most",NA,"orange",NA,"ears","90","kazzes"
"885",29,3016,"implied_prevalence","danger",14,"most",NA,"red",NA,"scales","90","blins"
"886",29,3720,"implied_prevalence","irrelevant",15,"most",NA,"copper",NA,"fur","90","kweps"
"887",29,4512,"implied_prevalence","distinct",16,"most",NA,"pink",NA,"ears","90","elleps"
"888",29,4904,"implied_prevalence","irrelevant",17,"most",NA,"purple",NA,"shells","90","javs"
"889",29,3401,"implied_prevalence","distinct",18,"most",NA,"yellow",NA,"fur","90","ollers"
"890",29,3679,"implied_prevalence","danger",19,"most",NA,"silver",NA,"fur","90","morseths"
"891",29,4112,"implied_prevalence","irrelevant",20,"most",NA,"gold",NA,"spots","90","stups"
"892",29,28088,"implied_prevalence","irrelevant",21,"most",NA,"blue",NA,"teeth","90","thups"
"893",29,3487,"implied_prevalence","distinct",22,"most",NA,"purple",NA,"tails","90","taifels"
"894",29,2784,"implied_prevalence","danger",23,"most",NA,"yellow",NA,"legs","90","ludinos"
"895",29,3103,"implied_prevalence","distinct",24,"most",NA,"silver",NA,"legs","90","ackles"
"896",29,2898,"implied_prevalence","danger",25,"most",NA,"gold",NA,"stripes","90","daiths"
"897",29,3270,"implied_prevalence","danger",26,"most",NA,"purple",NA,"feathers","90","lorches"
"898",29,2984,"implied_prevalence","distinct",27,"most",NA,"copper",NA,"stripes","90","mooks"
"899",29,4055,"implied_prevalence","danger",28,"most",NA,"pink",NA,"teeth","90","krivels"
"900",29,3719,"implied_prevalence","distinct",29,"most",NA,"orange",NA,"shells","90","luzaks"
"901",30,8381,"truth_conditions","distinct",NA,"some",0,"gold",30,"feathers","True","plovs"
"902",30,7196,"truth_conditions","irrelevant",NA,"some",1,"orange",50,"ears","True","kazzes"
"903",30,7189,"truth_conditions","danger",NA,"some",2,"gold",30,"stripes","True","daiths"
"904",30,6508,"truth_conditions","danger",NA,"some",3,"yellow",90,"legs","True","ludinos"
"905",30,4640,"truth_conditions","irrelevant",NA,"some",4,"silver",10,"stripes","True","frams"
"906",30,5012,"truth_conditions","irrelevant",NA,"some",5,"red",90,"feathers","True","noobs"
"907",30,3631,"truth_conditions","danger",NA,"some",6,"red",50,"scales","True","blins"
"908",30,6407,"truth_conditions","danger",NA,"some",7,"green",70,"shells","True","moxes"
"909",30,2909,"truth_conditions","irrelevant",NA,"some",8,"copper",30,"fur","True","kweps"
"910",30,3171,"truth_conditions","irrelevant",NA,"some",9,"pink",70,"legs","True","feps"
"911",30,3427,"truth_conditions","danger",NA,"some",10,"silver",10,"fur","True","morseths"
"912",30,3915,"truth_conditions","danger",NA,"some",11,"pink",30,"teeth","True","krivels"
"913",30,5366,"truth_conditions","distinct",NA,"some",12,"copper",70,"stripes","True","mooks"
"914",30,3207,"truth_conditions","distinct",NA,"some",13,"yellow",10,"fur","True","ollers"
"915",30,2618,"truth_conditions","distinct",NA,"some",14,"red",70,"spots","True","sapers"
"916",30,2569,"truth_conditions","danger",NA,"some",15,"orange",90,"tails","True","zorbs"
"917",30,3267,"truth_conditions","danger",NA,"some",16,"blue",70,"ears","True","cheebas"
"918",30,3196,"truth_conditions","danger",NA,"some",17,"copper",50,"spots","True","glippets"
"919",30,2812,"truth_conditions","distinct",NA,"some",18,"blue",30,"scales","True","reesles"
"920",30,2179,"truth_conditions","irrelevant",NA,"some",19,"blue",90,"teeth","True","thups"
"921",30,3188,"truth_conditions","distinct",NA,"some",20,"purple",10,"tails","True","taifels"
"922",30,4004,"truth_conditions","danger",NA,"some",21,"purple",10,"feathers","True","lorches"
"923",30,2129,"truth_conditions","irrelevant",NA,"some",22,"purple",30,"shells","True","javs"
"924",30,1690,"truth_conditions","irrelevant",NA,"some",23,"gold",10,"spots","True","stups"
"925",30,2923,"truth_conditions","distinct",NA,"some",24,"pink",50,"ears","True","elleps"
"926",30,2852,"truth_conditions","distinct",NA,"some",25,"green",50,"teeth","True","zoovs"
"927",30,3076,"truth_conditions","irrelevant",NA,"some",26,"yellow",50,"scales","True","dorbs"
"928",30,2618,"truth_conditions","distinct",NA,"some",27,"silver",90,"legs","True","ackles"
"929",30,4717,"truth_conditions","irrelevant",NA,"some",28,"green",70,"tails","True","trufts"
"930",30,3544,"truth_conditions","distinct",NA,"some",29,"orange",90,"shells","True","luzaks"
"931",31,11022,"truth_conditions","danger",NA,"some",0,"green",10,"shells","True","moxes"
"932",31,6046,"truth_conditions","danger",NA,"some",1,"orange",30,"tails","True","zorbs"
"933",31,6189,"truth_conditions","irrelevant",NA,"some",2,"purple",70,"shells","True","javs"
"934",31,5943,"truth_conditions","danger",NA,"some",3,"yellow",10,"legs","True","ludinos"
"935",31,6281,"truth_conditions","distinct",NA,"some",4,"pink",10,"ears","True","elleps"
"936",31,5837,"truth_conditions","danger",NA,"some",5,"red",30,"scales","True","blins"
"937",31,6210,"truth_conditions","danger",NA,"some",6,"blue",90,"ears","True","cheebas"
"938",31,4288,"truth_conditions","irrelevant",NA,"some",7,"red",50,"feathers","True","noobs"
"939",31,3411,"truth_conditions","distinct",NA,"some",8,"purple",90,"tails","True","taifels"
"940",31,2903,"truth_conditions","danger",NA,"some",9,"gold",70,"stripes","True","daiths"
"941",31,3525,"truth_conditions","danger",NA,"some",10,"purple",50,"feathers","True","lorches"
"942",31,4967,"truth_conditions","irrelevant",NA,"some",11,"blue",30,"teeth","True","thups"
"943",31,4472,"truth_conditions","danger",NA,"some",12,"pink",90,"teeth","True","krivels"
"944",31,2834,"truth_conditions","distinct",NA,"some",13,"blue",50,"scales","True","reesles"
"945",31,3018,"truth_conditions","danger",NA,"some",14,"copper",70,"spots","True","glippets"
"946",31,3861,"truth_conditions","distinct",NA,"some",15,"green",90,"teeth","True","zoovs"
"947",31,7153,"truth_conditions","irrelevant",NA,"some",16,"orange",90,"ears","True","kazzes"
"948",31,5057,"truth_conditions","irrelevant",NA,"some",17,"yellow",10,"scales","True","dorbs"
"949",31,5213,"truth_conditions","irrelevant",NA,"some",18,"gold",70,"spots","True","stups"
"950",31,2410,"truth_conditions","irrelevant",NA,"some",19,"copper",90,"fur","True","kweps"
"951",31,4502,"truth_conditions","irrelevant",NA,"some",20,"silver",10,"stripes","True","frams"
"952",31,3263,"truth_conditions","distinct",NA,"some",21,"silver",30,"legs","True","ackles"
"953",31,5562,"truth_conditions","irrelevant",NA,"some",22,"pink",30,"legs","True","feps"
"954",31,4297,"truth_conditions","distinct",NA,"some",23,"gold",70,"feathers","True","plovs"
"955",31,8251,"truth_conditions","irrelevant",NA,"some",24,"green",50,"tails","True","trufts"
"956",31,4266,"truth_conditions","danger",NA,"some",25,"silver",50,"fur","True","morseths"
"957",31,5712,"truth_conditions","distinct",NA,"some",26,"yellow",30,"fur","True","ollers"
"958",31,3126,"truth_conditions","distinct",NA,"some",27,"red",70,"spots","True","sapers"
"959",31,3867,"truth_conditions","distinct",NA,"some",28,"copper",10,"stripes","True","mooks"
"960",31,2939,"truth_conditions","distinct",NA,"some",29,"orange",50,"shells","True","luzaks"
"961",32,14854,"implied_prevalence","distinct",0,"most",NA,"gold",NA,"feathers","100","plovs"
"962",32,16948,"implied_prevalence","danger",1,"most",NA,"orange",NA,"tails","75","zorbs"
"963",32,11457,"implied_prevalence","distinct",2,"most",NA,"yellow",NA,"fur","75","ollers"
"964",32,8534,"implied_prevalence","irrelevant",3,"most",NA,"pink",NA,"legs","75","feps"
"965",32,11497,"implied_prevalence","distinct",4,"most",NA,"red",NA,"spots","75","sapers"
"966",32,8400,"implied_prevalence","danger",5,"most",NA,"red",NA,"scales","75","blins"
"967",32,8556,"implied_prevalence","danger",6,"most",NA,"green",NA,"shells","75","moxes"
"968",32,6029,"implied_prevalence","irrelevant",7,"most",NA,"blue",NA,"teeth","75","thups"
"969",32,10031,"implied_prevalence","distinct",8,"most",NA,"blue",NA,"scales","75","reesles"
"970",32,5659,"implied_prevalence","irrelevant",9,"most",NA,"orange",NA,"ears","75","kazzes"
"971",32,11733,"implied_prevalence","danger",10,"most",NA,"gold",NA,"stripes","75","daiths"
"972",32,5182,"implied_prevalence","irrelevant",11,"most",NA,"yellow",NA,"scales","75","dorbs"
"973",32,7113,"implied_prevalence","distinct",12,"most",NA,"silver",NA,"legs","75","ackles"
"974",32,5652,"implied_prevalence","distinct",13,"most",NA,"purple",NA,"tails","75","taifels"
"975",32,4961,"implied_prevalence","distinct",14,"most",NA,"pink",NA,"ears","75","elleps"
"976",32,5438,"implied_prevalence","danger",15,"most",NA,"yellow",NA,"legs","75","ludinos"
"977",32,6981,"implied_prevalence","irrelevant",16,"most",NA,"copper",NA,"fur","75","kweps"
"978",32,5374,"implied_prevalence","irrelevant",17,"most",NA,"gold",NA,"spots","75","stups"
"979",32,4723,"implied_prevalence","danger",18,"most",NA,"purple",NA,"feathers","75","lorches"
"980",32,6913,"implied_prevalence","irrelevant",19,"most",NA,"purple",NA,"shells","75","javs"
"981",32,4888,"implied_prevalence","danger",20,"most",NA,"silver",NA,"fur","75","morseths"
"982",32,5291,"implied_prevalence","irrelevant",21,"most",NA,"green",NA,"tails","75","trufts"
"983",32,9248,"implied_prevalence","danger",22,"most",NA,"copper",NA,"spots","75","glippets"
"984",32,8822,"implied_prevalence","danger",23,"most",NA,"blue",NA,"ears","75","cheebas"
"985",32,5465,"implied_prevalence","irrelevant",24,"most",NA,"red",NA,"feathers","75","noobs"
"986",32,4180,"implied_prevalence","distinct",25,"most",NA,"orange",NA,"shells","75","luzaks"
"987",32,4844,"implied_prevalence","danger",26,"most",NA,"pink",NA,"teeth","75","krivels"
"988",32,6464,"implied_prevalence","distinct",27,"most",NA,"copper",NA,"stripes","75","mooks"
"989",32,4219,"implied_prevalence","distinct",28,"most",NA,"green",NA,"teeth","75","zoovs"
"990",32,6611,"implied_prevalence","irrelevant",29,"most",NA,"silver",NA,"stripes","75","frams"
"991",33,12062,"implied_prevalence","distinct",0,"most",NA,"copper",NA,"stripes","85","mooks"
"992",33,11886,"implied_prevalence","irrelevant",1,"most",NA,"silver",NA,"stripes","88","frams"
"993",33,8513,"implied_prevalence","irrelevant",2,"most",NA,"copper",NA,"fur","95","kweps"
"994",33,9122,"implied_prevalence","distinct",3,"most",NA,"blue",NA,"scales","96","reesles"
"995",33,9468,"implied_prevalence","danger",4,"most",NA,"gold",NA,"stripes","98","daiths"
"996",33,7657,"implied_prevalence","distinct",5,"most",NA,"pink",NA,"ears","99","elleps"
"997",33,8718,"implied_prevalence","danger",6,"most",NA,"copper",NA,"spots","96","glippets"
"998",33,6421,"implied_prevalence","danger",7,"most",NA,"green",NA,"shells","99","moxes"
"999",33,8246,"implied_prevalence","distinct",8,"most",NA,"green",NA,"teeth","98","zoovs"
"1000",33,9366,"implied_prevalence","irrelevant",9,"most",NA,"blue",NA,"teeth","90","thups"
"1001",33,7944,"implied_prevalence","danger",10,"most",NA,"silver",NA,"fur","95","morseths"
"1002",33,9189,"implied_prevalence","danger",11,"most",NA,"blue",NA,"ears","98","cheebas"
"1003",33,9884,"implied_prevalence","distinct",12,"most",NA,"silver",NA,"legs","94","ackles"
"1004",33,10063,"implied_prevalence","irrelevant",13,"most",NA,"red",NA,"feathers","94","noobs"
"1005",33,6639,"implied_prevalence","distinct",14,"most",NA,"yellow",NA,"fur","97","ollers"
"1006",33,6243,"implied_prevalence","danger",15,"most",NA,"pink",NA,"teeth","99","krivels"
"1007",33,9393,"implied_prevalence","irrelevant",16,"most",NA,"purple",NA,"shells","85","javs"
"1008",33,10666,"implied_prevalence","distinct",17,"most",NA,"gold",NA,"feathers","95","plovs"
"1009",33,9024,"implied_prevalence","irrelevant",18,"most",NA,"yellow",NA,"scales","96","dorbs"
"1010",33,9032,"implied_prevalence","distinct",19,"most",NA,"orange",NA,"shells","88","luzaks"
"1011",33,7870,"implied_prevalence","danger",20,"most",NA,"red",NA,"scales","98","blins"
"1012",33,6592,"implied_prevalence","irrelevant",21,"most",NA,"orange",NA,"ears","89","kazzes"
"1013",33,8316,"implied_prevalence","irrelevant",22,"most",NA,"pink",NA,"legs","91","feps"
"1014",33,6077,"implied_prevalence","irrelevant",23,"most",NA,"green",NA,"tails","99","trufts"
"1015",33,8537,"implied_prevalence","distinct",24,"most",NA,"red",NA,"spots","88","sapers"
"1016",33,6272,"implied_prevalence","danger",25,"most",NA,"yellow",NA,"legs","91","ludinos"
"1017",33,11246,"implied_prevalence","danger",26,"most",NA,"purple",NA,"feathers","98","lorches"
"1018",33,6975,"implied_prevalence","distinct",27,"most",NA,"purple",NA,"tails","93","taifels"
"1019",33,6295,"implied_prevalence","irrelevant",28,"most",NA,"gold",NA,"spots","89","stups"
"1020",33,6332,"implied_prevalence","danger",29,"most",NA,"orange",NA,"tails","95","zorbs"
"1021",34,8396,"implied_prevalence","irrelevant",0,"some",NA,"yellow",NA,"scales","30","dorbs"
"1022",34,4639,"implied_prevalence","irrelevant",1,"some",NA,"copper",NA,"fur","30","kweps"
"1023",34,6240,"implied_prevalence","distinct",2,"some",NA,"green",NA,"teeth","30","zoovs"
"1024",34,4879,"implied_prevalence","irrelevant",3,"some",NA,"pink",NA,"legs","30","feps"
"1025",34,4305,"implied_prevalence","irrelevant",4,"some",NA,"purple",NA,"shells","30","javs"
"1026",34,5766,"implied_prevalence","danger",5,"some",NA,"gold",NA,"stripes","30","daiths"
"1027",34,4274,"implied_prevalence","distinct",6,"some",NA,"pink",NA,"ears","30","elleps"
"1028",34,2630,"implied_prevalence","distinct",7,"some",NA,"yellow",NA,"fur","30","ollers"
"1029",34,4729,"implied_prevalence","irrelevant",8,"some",NA,"orange",NA,"ears","30","kazzes"
"1030",34,2743,"implied_prevalence","danger",9,"some",NA,"red",NA,"scales","30","blins"
"1031",34,3736,"implied_prevalence","danger",10,"some",NA,"copper",NA,"spots","30","glippets"
"1032",34,2824,"implied_prevalence","danger",11,"some",NA,"silver",NA,"fur","30","morseths"
"1033",34,2392,"implied_prevalence","danger",12,"some",NA,"blue",NA,"ears","30","cheebas"
"1034",34,2759,"implied_prevalence","danger",13,"some",NA,"purple",NA,"feathers","30","lorches"
"1035",34,3361,"implied_prevalence","distinct",14,"some",NA,"blue",NA,"scales","30","reesles"
"1036",34,2688,"implied_prevalence","irrelevant",15,"some",NA,"green",NA,"tails","30","trufts"
"1037",34,2977,"implied_prevalence","irrelevant",16,"some",NA,"blue",NA,"teeth","30","thups"
"1038",34,2855,"implied_prevalence","danger",17,"some",NA,"orange",NA,"tails","30","zorbs"
"1039",34,2407,"implied_prevalence","irrelevant",18,"some",NA,"silver",NA,"stripes","30","frams"
"1040",34,2728,"implied_prevalence","distinct",19,"some",NA,"red",NA,"spots","30","sapers"
"1041",34,2352,"implied_prevalence","danger",20,"some",NA,"green",NA,"shells","30","moxes"
"1042",34,2375,"implied_prevalence","irrelevant",21,"some",NA,"gold",NA,"spots","30","stups"
"1043",34,3273,"implied_prevalence","distinct",22,"some",NA,"copper",NA,"stripes","30","mooks"
"1044",34,2895,"implied_prevalence","distinct",23,"some",NA,"silver",NA,"legs","30","ackles"
"1045",34,4655,"implied_prevalence","distinct",24,"some",NA,"purple",NA,"tails","30","taifels"
"1046",34,3197,"implied_prevalence","danger",25,"some",NA,"pink",NA,"teeth","30","krivels"
"1047",34,2419,"implied_prevalence","irrelevant",26,"some",NA,"red",NA,"feathers","30","noobs"
"1048",34,3169,"implied_prevalence","danger",27,"some",NA,"yellow",NA,"legs","30","ludinos"
"1049",34,5198,"implied_prevalence","distinct",28,"some",NA,"orange",NA,"shells","30","luzaks"
"1050",34,2168,"implied_prevalence","distinct",29,"some",NA,"gold",NA,"feathers","30","plovs"
"1051",35,18600,"implied_prevalence","danger",0,"generic",NA,"yellow",NA,"legs","10","ludinos"
"1052",35,8965,"implied_prevalence","irrelevant",1,"generic",NA,"orange",NA,"ears","10","kazzes"
"1053",35,5501,"implied_prevalence","distinct",2,"generic",NA,"purple",NA,"tails","2","taifels"
"1054",35,17202,"implied_prevalence","danger",3,"generic",NA,"gold",NA,"stripes","4","daiths"
"1055",35,12329,"implied_prevalence","danger",4,"generic",NA,"orange",NA,"tails","5","zorbs"
"1056",35,5773,"implied_prevalence","danger",5,"generic",NA,"pink",NA,"teeth","1","krivels"
"1057",35,10866,"implied_prevalence","distinct",6,"generic",NA,"copper",NA,"stripes","10","mooks"
"1058",35,8505,"implied_prevalence","irrelevant",7,"generic",NA,"red",NA,"feathers","20","noobs"
"1059",35,9900,"implied_prevalence","distinct",8,"generic",NA,"silver",NA,"legs","1","ackles"
"1060",35,9776,"implied_prevalence","distinct",9,"generic",NA,"blue",NA,"scales","10","reesles"
"1061",35,5108,"implied_prevalence","danger",10,"generic",NA,"blue",NA,"ears","2","cheebas"
"1062",35,6951,"implied_prevalence","irrelevant",11,"generic",NA,"purple",NA,"shells","1","javs"
"1063",35,9900,"implied_prevalence","distinct",12,"generic",NA,"pink",NA,"ears","10","elleps"
"1064",35,6300,"implied_prevalence","distinct",13,"generic",NA,"orange",NA,"shells","5","luzaks"
"1065",35,13691,"implied_prevalence","danger",14,"generic",NA,"copper",NA,"spots","5","glippets"
"1066",35,5636,"implied_prevalence","danger",15,"generic",NA,"purple",NA,"feathers","10","lorches"
"1067",35,4343,"implied_prevalence","irrelevant",16,"generic",NA,"pink",NA,"legs","1","feps"
"1068",35,8847,"implied_prevalence","danger",17,"generic",NA,"red",NA,"scales","15","blins"
"1069",35,7710,"implied_prevalence","danger",18,"generic",NA,"green",NA,"shells","10","moxes"
"1070",35,5782,"implied_prevalence","distinct",19,"generic",NA,"green",NA,"teeth","3","zoovs"
"1071",35,6220,"implied_prevalence","irrelevant",20,"generic",NA,"copper",NA,"fur","1","kweps"
"1072",35,12948,"implied_prevalence","irrelevant",21,"generic",NA,"yellow",NA,"scales","10","dorbs"
