"","workerid","rt","trial_type","stim_type","stim_part","stim_determiner","trialNum","stim_color","stim_prevalence","response","stim_category"
"1",0,26522,"truth_conditions","nondistinctive","tails","generic",0,"green",70,"True","trufts"
"2",0,10155,"truth_conditions","bare","stripes","generic",1,"gold",30,"True","daiths"
"3",0,6229,"truth_conditions","nondistinctive","fur","generic",2,"copper",30,"True","kweps"
"4",0,3845,"truth_conditions","bare","shells","generic",3,"green",70,"True","moxes"
"5",0,3656,"truth_conditions","danger/distinct","spots","generic",4,"red",10,"False","sapers"
"6",0,3850,"truth_conditions","nondistinctive","shells","generic",5,"purple",50,"True","javs"
"7",0,6042,"truth_conditions","danger/distinct","stripes","generic",6,"copper",70,"True","mooks"
"8",0,2767,"truth_conditions","bare","feathers","generic",7,"purple",70,"True","lorches"
"9",0,6134,"truth_conditions","bare","fur","generic",8,"silver",10,"False","morseths"
"10",0,3207,"truth_conditions","danger/distinct","teeth","generic",9,"green",90,"True","zoovs"
"11",0,3282,"truth_conditions","danger/distinct","fur","generic",10,"yellow",90,"True","ollers"
"12",0,2476,"truth_conditions","bare","spots","generic",11,"copper",50,"True","glippets"
"13",0,3051,"truth_conditions","danger/distinct","legs","generic",12,"silver",30,"True","ackles"
"14",0,3348,"truth_conditions","nondistinctive","feathers","generic",13,"red",90,"True","noobs"
"15",0,2764,"truth_conditions","bare","teeth","generic",14,"pink",90,"True","krivels"
"16",0,2728,"truth_conditions","bare","scales","generic",15,"red",10,"False","blins"
"17",0,2945,"truth_conditions","nondistinctive","teeth","generic",16,"blue",90,"True","thups"
"18",0,2472,"truth_conditions","danger/distinct","ears","generic",17,"pink",70,"True","elleps"
"19",0,1876,"truth_conditions","nondistinctive","ears","generic",18,"orange",70,"True","kazzes"
"20",0,2357,"truth_conditions","danger/distinct","scales","generic",19,"blue",10,"False","reesles"
"21",0,2683,"truth_conditions","nondistinctive","spots","generic",20,"gold",30,"True","stups"
"22",0,2394,"truth_conditions","danger/distinct","feathers","generic",21,"gold",50,"True","plovs"
"23",0,3327,"truth_conditions","bare","ears","generic",22,"blue",90,"True","cheebas"
"24",0,2322,"truth_conditions","danger/distinct","tails","generic",23,"purple",30,"True","taifels"
"25",0,2474,"truth_conditions","bare","tails","generic",24,"orange",50,"True","zorbs"
"26",0,2592,"truth_conditions","nondistinctive","stripes","generic",25,"silver",50,"True","frams"
"27",0,1908,"truth_conditions","danger/distinct","shells","generic",26,"orange",50,"True","luzaks"
"28",0,5049,"truth_conditions","nondistinctive","scales","generic",27,"yellow",10,"False","dorbs"
"29",0,2772,"truth_conditions","bare","legs","generic",28,"yellow",30,"False","ludinos"
"30",0,2954,"truth_conditions","nondistinctive","legs","generic",29,"pink",10,"False","feps"
"31",1,101403,"truth_conditions","danger/distinct","ears","generic",0,"pink",90,"True","elleps"
"32",1,11092,"truth_conditions","danger/distinct","teeth","generic",1,"green",70,"True","zoovs"
"33",1,4102,"truth_conditions","bare","teeth","generic",2,"pink",30,"True","krivels"
"34",1,5680,"truth_conditions","danger/distinct","legs","generic",3,"silver",70,"True","ackles"
"35",1,4400,"truth_conditions","nondistinctive","legs","generic",4,"pink",10,"False","feps"
"36",1,3896,"truth_conditions","nondistinctive","tails","generic",5,"green",70,"True","trufts"
"37",1,2769,"truth_conditions","bare","fur","generic",6,"silver",30,"False","morseths"
"38",1,2440,"truth_conditions","bare","feathers","generic",7,"purple",90,"True","lorches"
"39",1,2127,"truth_conditions","nondistinctive","spots","generic",8,"gold",90,"True","stups"
"40",1,19281,"truth_conditions","danger/distinct","shells","generic",9,"orange",30,"False","luzaks"
"41",1,1648,"truth_conditions","nondistinctive","ears","generic",10,"orange",50,"True","kazzes"
"42",1,1942,"truth_conditions","nondistinctive","stripes","generic",11,"silver",30,"False","frams"
"43",1,1727,"truth_conditions","danger/distinct","tails","generic",12,"purple",30,"False","taifels"
"44",1,1425,"truth_conditions","nondistinctive","fur","generic",13,"copper",90,"True","kweps"
"45",1,2175,"truth_conditions","danger/distinct","spots","generic",14,"red",90,"True","sapers"
"46",1,15336,"truth_conditions","danger/distinct","fur","generic",15,"yellow",50,"True","ollers"
"47",1,2511,"truth_conditions","bare","stripes","generic",16,"gold",70,"True","daiths"
"48",1,2143,"truth_conditions","bare","legs","generic",17,"yellow",10,"False","ludinos"
"49",1,1617,"truth_conditions","bare","scales","generic",18,"red",10,"False","blins"
"50",1,1904,"truth_conditions","danger/distinct","feathers","generic",19,"gold",10,"False","plovs"
"51",1,2861,"truth_conditions","danger/distinct","scales","generic",20,"blue",10,"False","reesles"
"52",1,1920,"truth_conditions","bare","spots","generic",21,"copper",50,"True","glippets"
"53",1,1921,"truth_conditions","nondistinctive","shells","generic",22,"purple",50,"True","javs"
"54",1,1783,"truth_conditions","bare","shells","generic",23,"green",70,"True","moxes"
"55",1,2151,"truth_conditions","nondistinctive","teeth","generic",24,"blue",10,"False","thups"
"56",1,1944,"truth_conditions","danger/distinct","stripes","generic",25,"copper",50,"True","mooks"
"57",1,31937,"truth_conditions","nondistinctive","feathers","generic",26,"red",70,"True","noobs"
"58",1,7071,"truth_conditions","nondistinctive","scales","generic",27,"yellow",30,"False","dorbs"
"59",1,1575,"truth_conditions","bare","tails","generic",28,"orange",50,"True","zorbs"
"60",1,1527,"truth_conditions","bare","ears","generic",29,"blue",90,"True","cheebas"
"61",2,16801,"truth_conditions","danger/distinct","feathers","generic",0,"gold",50,"True","plovs"
"62",2,11472,"truth_conditions","nondistinctive","feathers","generic",1,"red",30,"True","noobs"
"63",2,8318,"truth_conditions","bare","legs","generic",2,"yellow",90,"True","ludinos"
"64",2,14532,"truth_conditions","danger/distinct","spots","generic",3,"red",30,"True","sapers"
"65",2,15863,"truth_conditions","nondistinctive","spots","generic",4,"gold",50,"True","stups"
"66",2,5994,"truth_conditions","bare","tails","generic",5,"orange",50,"True","zorbs"
"67",2,13037,"truth_conditions","nondistinctive","scales","generic",6,"yellow",10,"True","dorbs"
"68",2,16618,"truth_conditions","danger/distinct","shells","generic",7,"orange",30,"True","luzaks"
"69",2,10973,"truth_conditions","nondistinctive","stripes","generic",8,"silver",50,"True","frams"
"70",2,10277,"truth_conditions","bare","feathers","generic",9,"purple",70,"True","lorches"
"71",2,12618,"truth_conditions","danger/distinct","tails","generic",10,"purple",10,"False","taifels"
"72",2,8835,"truth_conditions","danger/distinct","fur","generic",11,"yellow",90,"True","ollers"
"73",2,8302,"truth_conditions","bare","ears","generic",12,"blue",30,"False","cheebas"
"74",2,3674,"truth_conditions","bare","scales","generic",13,"red",70,"True","blins"
"75",2,9208,"truth_conditions","danger/distinct","ears","generic",14,"pink",70,"True","elleps"
"76",2,5251,"truth_conditions","danger/distinct","stripes","generic",15,"copper",50,"True","mooks"
"77",2,9463,"truth_conditions","nondistinctive","tails","generic",16,"green",90,"True","trufts"
"78",2,3232,"truth_conditions","nondistinctive","shells","generic",17,"purple",70,"True","javs"
"79",2,3867,"truth_conditions","bare","fur","generic",18,"silver",90,"True","morseths"
"80",2,8146,"truth_conditions","danger/distinct","scales","generic",19,"blue",70,"True","reesles"
"81",2,4742,"truth_conditions","danger/distinct","legs","generic",20,"silver",90,"True","ackles"
"82",2,6298,"truth_conditions","bare","shells","generic",21,"green",10,"False","moxes"
"83",2,3805,"truth_conditions","danger/distinct","teeth","generic",22,"green",10,"False","zoovs"
"84",2,4131,"truth_conditions","bare","stripes","generic",23,"gold",30,"False","daiths"
"85",2,3259,"truth_conditions","bare","teeth","generic",24,"pink",10,"False","krivels"
"86",2,6255,"truth_conditions","nondistinctive","teeth","generic",25,"blue",70,"True","thups"
"87",2,2629,"truth_conditions","bare","spots","generic",26,"copper",50,"True","glippets"
"88",2,3813,"truth_conditions","nondistinctive","legs","generic",27,"pink",90,"True","feps"
"89",2,3110,"truth_conditions","nondistinctive","fur","generic",28,"copper",30,"False","kweps"
"90",2,2653,"truth_conditions","nondistinctive","ears","generic",29,"orange",10,"False","kazzes"
"91",3,10702,"truth_conditions","nondistinctive","shells","generic",0,"purple",70,"True","javs"
"92",3,4014,"truth_conditions","danger/distinct","spots","generic",1,"red",30,"True","sapers"
"93",3,2425,"truth_conditions","bare","ears","generic",2,"blue",70,"True","cheebas"
"94",3,2274,"truth_conditions","nondistinctive","legs","generic",3,"pink",90,"True","feps"
"95",3,1336,"truth_conditions","nondistinctive","teeth","generic",4,"blue",50,"True","thups"
"96",3,1309,"truth_conditions","danger/distinct","ears","generic",5,"pink",70,"True","elleps"
"97",3,1189,"truth_conditions","bare","fur","generic",6,"silver",50,"True","morseths"
"98",3,2306,"truth_conditions","danger/distinct","legs","generic",7,"silver",10,"True","ackles"
"99",3,1184,"truth_conditions","bare","teeth","generic",8,"pink",50,"True","krivels"
"100",3,1259,"truth_conditions","nondistinctive","scales","generic",9,"yellow",70,"True","dorbs"
"101",3,1714,"truth_conditions","danger/distinct","teeth","generic",10,"green",30,"True","zoovs"
"102",3,1306,"truth_conditions","danger/distinct","feathers","generic",11,"gold",50,"True","plovs"
"103",3,1262,"truth_conditions","nondistinctive","tails","generic",12,"green",30,"True","trufts"
"104",3,2038,"truth_conditions","danger/distinct","tails","generic",13,"purple",90,"True","taifels"
"105",3,3024,"truth_conditions","bare","feathers","generic",14,"purple",30,"True","lorches"
"106",3,1468,"truth_conditions","nondistinctive","spots","generic",15,"gold",10,"True","stups"
"107",3,1394,"truth_conditions","bare","stripes","generic",16,"gold",10,"True","daiths"
"108",3,4650,"truth_conditions","nondistinctive","feathers","generic",17,"red",90,"True","noobs"
"109",3,2163,"truth_conditions","bare","shells","generic",18,"green",90,"True","moxes"
"110",3,1124,"truth_conditions","bare","tails","generic",19,"orange",70,"True","zorbs"
"111",3,1817,"truth_conditions","nondistinctive","stripes","generic",20,"silver",30,"True","frams"
"112",3,1210,"truth_conditions","nondistinctive","fur","generic",21,"copper",50,"True","kweps"
"113",3,1776,"truth_conditions","danger/distinct","shells","generic",22,"orange",70,"True","luzaks"
"114",3,1546,"truth_conditions","bare","scales","generic",23,"red",30,"True","blins"
"115",3,1163,"truth_conditions","danger/distinct","scales","generic",24,"blue",10,"True","reesles"
"116",3,1375,"truth_conditions","bare","legs","generic",25,"yellow",10,"True","ludinos"
"117",3,1331,"truth_conditions","danger/distinct","fur","generic",26,"yellow",90,"True","ollers"
"118",3,1270,"truth_conditions","danger/distinct","stripes","generic",27,"copper",50,"True","mooks"
"119",3,1227,"truth_conditions","nondistinctive","ears","generic",28,"orange",10,"True","kazzes"
"120",3,1321,"truth_conditions","bare","spots","generic",29,"copper",90,"True","glippets"
"121",4,19506,"truth_conditions","nondistinctive","spots","generic",0,"gold",70,"True","stups"
"122",4,7173,"truth_conditions","bare","spots","generic",1,"copper",30,"False","glippets"
"123",4,14174,"truth_conditions","danger/distinct","ears","generic",2,"pink",70,"True","elleps"
"124",4,14568,"truth_conditions","danger/distinct","teeth","generic",3,"green",10,"True","zoovs"
"125",4,12034,"truth_conditions","danger/distinct","stripes","generic",4,"copper",30,"True","mooks"
"126",4,15405,"truth_conditions","nondistinctive","stripes","generic",5,"silver",10,"False","frams"
"127",4,4522,"truth_conditions","bare","teeth","generic",6,"pink",90,"True","krivels"
"128",4,5371,"truth_conditions","bare","legs","generic",7,"yellow",90,"True","ludinos"
"129",4,8376,"truth_conditions","bare","stripes","generic",8,"gold",10,"True","daiths"
"130",4,10996,"truth_conditions","nondistinctive","legs","generic",9,"pink",50,"True","feps"
"131",4,2830,"truth_conditions","bare","shells","generic",10,"green",50,"True","moxes"
"132",4,5591,"truth_conditions","bare","tails","generic",11,"orange",50,"True","zorbs"
"133",4,7308,"truth_conditions","danger/distinct","tails","generic",12,"purple",30,"True","taifels"
"134",4,6801,"truth_conditions","nondistinctive","ears","generic",13,"orange",30,"False","kazzes"
"135",4,5568,"truth_conditions","nondistinctive","fur","generic",14,"copper",10,"False","kweps"
"136",4,7811,"truth_conditions","nondistinctive","shells","generic",15,"purple",50,"True","javs"
"137",4,8880,"truth_conditions","bare","ears","generic",16,"blue",30,"True","cheebas"
"138",4,7874,"truth_conditions","danger/distinct","shells","generic",17,"orange",50,"True","luzaks"
"139",4,3243,"truth_conditions","bare","feathers","generic",18,"purple",70,"True","lorches"
"140",4,11687,"truth_conditions","danger/distinct","feathers","generic",19,"gold",50,"True","plovs"
"141",4,2967,"truth_conditions","bare","fur","generic",20,"silver",70,"True","morseths"
"142",4,5830,"truth_conditions","nondistinctive","scales","generic",21,"yellow",90,"True","dorbs"
"143",4,7236,"truth_conditions","nondistinctive","feathers","generic",22,"red",70,"True","noobs"
"144",4,8433,"truth_conditions","danger/distinct","legs","generic",23,"silver",70,"True","ackles"
"145",4,7952,"truth_conditions","danger/distinct","spots","generic",24,"red",90,"True","sapers"
"146",4,14515,"truth_conditions","danger/distinct","scales","generic",25,"blue",10,"True","reesles"
"147",4,11030,"truth_conditions","danger/distinct","fur","generic",26,"yellow",90,"True","ollers"
"148",4,3170,"truth_conditions","bare","scales","generic",27,"red",10,"False","blins"
"149",4,5964,"truth_conditions","nondistinctive","teeth","generic",28,"blue",30,"False","thups"
"150",4,8300,"truth_conditions","nondistinctive","tails","generic",29,"green",90,"True","trufts"
"151",5,17022,"truth_conditions","danger/distinct","ears","generic",0,"pink",30,"True","elleps"
"152",5,7796,"truth_conditions","danger/distinct","teeth","generic",1,"green",30,"True","zoovs"
"153",5,5092,"truth_conditions","bare","ears","generic",2,"blue",10,"True","cheebas"
"154",5,6539,"truth_conditions","nondistinctive","teeth","generic",3,"blue",30,"True","thups"
"155",5,4771,"truth_conditions","bare","feathers","generic",4,"purple",90,"True","lorches"
"156",5,5052,"truth_conditions","bare","tails","generic",5,"orange",30,"True","zorbs"
"157",5,7515,"truth_conditions","danger/distinct","stripes","generic",6,"copper",90,"True","mooks"
"158",5,3776,"truth_conditions","bare","scales","generic",7,"red",10,"True","blins"
"159",5,5547,"truth_conditions","bare","stripes","generic",8,"gold",70,"True","daiths"
"160",5,6001,"truth_conditions","nondistinctive","fur","generic",9,"copper",90,"True","kweps"
"161",5,4016,"truth_conditions","bare","fur","generic",10,"silver",50,"True","morseths"
"162",5,2411,"truth_conditions","bare","teeth","generic",11,"pink",90,"True","krivels"
"163",5,5548,"truth_conditions","nondistinctive","ears","generic",12,"orange",30,"True","kazzes"
"164",5,7221,"truth_conditions","nondistinctive","tails","generic",13,"green",70,"True","trufts"
"165",5,6399,"truth_conditions","danger/distinct","fur","generic",14,"yellow",90,"True","ollers"
"166",5,5579,"truth_conditions","danger/distinct","spots","generic",15,"red",50,"True","sapers"
"167",5,6440,"truth_conditions","nondistinctive","scales","generic",16,"yellow",10,"True","dorbs"
"168",5,36335,"truth_conditions","danger/distinct","tails","generic",17,"purple",70,"True","taifels"
"169",5,3026,"truth_conditions","bare","spots","generic",18,"copper",30,"True","glippets"
"170",5,4589,"truth_conditions","nondistinctive","spots","generic",19,"gold",50,"True","stups"
"171",5,4520,"truth_conditions","danger/distinct","scales","generic",20,"blue",10,"True","reesles"
"172",5,4793,"truth_conditions","nondistinctive","shells","generic",21,"purple",70,"True","javs"
"173",5,25131,"truth_conditions","nondistinctive","stripes","generic",22,"silver",10,"True","frams"
"174",5,7641,"truth_conditions","danger/distinct","legs","generic",23,"silver",10,"True","ackles"
"175",5,4833,"truth_conditions","nondistinctive","feathers","generic",24,"red",90,"True","noobs"
"176",5,2282,"truth_conditions","bare","legs","generic",25,"yellow",70,"True","ludinos"
"177",5,2485,"truth_conditions","bare","shells","generic",26,"green",50,"True","moxes"
"178",5,6698,"truth_conditions","danger/distinct","shells","generic",27,"orange",70,"True","luzaks"
"179",5,4480,"truth_conditions","nondistinctive","legs","generic",28,"pink",50,"True","feps"
"180",5,8484,"truth_conditions","danger/distinct","feathers","generic",29,"gold",50,"True","plovs"
"181",6,22169,"truth_conditions","danger/distinct","legs","generic",0,"silver",90,"True","ackles"
"182",6,18031,"truth_conditions","nondistinctive","feathers","generic",1,"red",10,"True","noobs"
"183",6,8905,"truth_conditions","nondistinctive","legs","generic",2,"pink",30,"True","feps"
"184",6,10660,"truth_conditions","nondistinctive","tails","generic",3,"green",10,"True","trufts"
"185",6,10288,"truth_conditions","danger/distinct","tails","generic",4,"purple",70,"True","taifels"
"186",6,9914,"truth_conditions","danger/distinct","shells","generic",5,"orange",50,"True","luzaks"
"187",6,11833,"truth_conditions","danger/distinct","ears","generic",6,"pink",70,"True","elleps"
"188",6,9264,"truth_conditions","nondistinctive","teeth","generic",7,"blue",90,"True","thups"
"189",6,10557,"truth_conditions","nondistinctive","scales","generic",8,"yellow",90,"True","dorbs"
"190",6,8231,"truth_conditions","danger/distinct","scales","generic",9,"blue",50,"True","reesles"
"191",6,9491,"truth_conditions","bare","ears","generic",10,"blue",10,"True","cheebas"
"192",6,5269,"truth_conditions","bare","tails","generic",11,"orange",70,"True","zorbs"
"193",6,8115,"truth_conditions","danger/distinct","stripes","generic",12,"copper",90,"True","mooks"
"194",6,5605,"truth_conditions","bare","legs","generic",13,"yellow",30,"True","ludinos"
"195",6,10013,"truth_conditions","bare","spots","generic",14,"copper",90,"True","glippets"
"196",6,8810,"truth_conditions","danger/distinct","feathers","generic",15,"gold",10,"True","plovs"
"197",6,3425,"truth_conditions","bare","scales","generic",16,"red",90,"True","blins"
"198",6,5750,"truth_conditions","bare","feathers","generic",17,"purple",10,"True","lorches"
"199",6,8573,"truth_conditions","danger/distinct","spots","generic",18,"red",10,"True","sapers"
"200",6,6437,"truth_conditions","nondistinctive","ears","generic",19,"orange",30,"True","kazzes"
"201",6,10887,"truth_conditions","danger/distinct","fur","generic",20,"yellow",30,"True","ollers"
"202",6,3076,"truth_conditions","bare","stripes","generic",21,"gold",30,"True","daiths"
"203",6,4573,"truth_conditions","bare","shells","generic",22,"green",50,"True","moxes"
"204",6,5987,"truth_conditions","nondistinctive","shells","generic",23,"purple",70,"True","javs"
"205",6,7420,"truth_conditions","nondistinctive","stripes","generic",24,"silver",50,"True","frams"
"206",6,9520,"truth_conditions","danger/distinct","teeth","generic",25,"green",30,"True","zoovs"
"207",6,3057,"truth_conditions","bare","fur","generic",26,"silver",70,"True","morseths"
"208",6,3891,"truth_conditions","bare","teeth","generic",27,"pink",50,"True","krivels"
"209",6,5875,"truth_conditions","nondistinctive","spots","generic",28,"gold",50,"True","stups"
"210",6,7672,"truth_conditions","nondistinctive","fur","generic",29,"copper",70,"True","kweps"
"211",7,3944,"truth_conditions","bare","legs","generic",0,"yellow",70,"False","ludinos"
"212",7,4891,"truth_conditions","danger/distinct","feathers","generic",1,"gold",90,"True","plovs"
"213",7,2733,"truth_conditions","bare","tails","generic",2,"orange",70,"False","zorbs"
"214",7,1540,"truth_conditions","bare","feathers","generic",3,"purple",50,"False","lorches"
"215",7,6433,"truth_conditions","nondistinctive","stripes","generic",4,"silver",30,"False","frams"
"216",7,3184,"truth_conditions","bare","fur","generic",5,"silver",30,"False","morseths"
"217",7,8346,"truth_conditions","nondistinctive","scales","generic",6,"yellow",50,"True","dorbs"
"218",7,1616,"truth_conditions","bare","teeth","generic",7,"pink",90,"True","krivels"
"219",7,5418,"truth_conditions","nondistinctive","feathers","generic",8,"red",30,"True","noobs"
"220",7,1518,"truth_conditions","bare","stripes","generic",9,"gold",10,"False","daiths"
"221",7,2936,"truth_conditions","nondistinctive","tails","generic",10,"green",10,"False","trufts"
"222",7,2442,"truth_conditions","nondistinctive","teeth","generic",11,"blue",90,"True","thups"
"223",7,1468,"truth_conditions","bare","ears","generic",12,"blue",30,"False","cheebas"
"224",7,2851,"truth_conditions","danger/distinct","spots","generic",13,"red",10,"False","sapers"
"225",7,2225,"truth_conditions","danger/distinct","stripes","generic",14,"copper",50,"False","mooks"
"226",7,3284,"truth_conditions","bare","spots","generic",15,"copper",10,"False","glippets"
"227",7,2782,"truth_conditions","danger/distinct","legs","generic",16,"silver",70,"True","ackles"
"228",7,3312,"truth_conditions","danger/distinct","ears","generic",17,"pink",30,"False","elleps"
"229",7,4040,"truth_conditions","nondistinctive","fur","generic",18,"copper",10,"False","kweps"
"230",7,1714,"truth_conditions","bare","shells","generic",19,"green",50,"False","moxes"
"231",7,2648,"truth_conditions","danger/distinct","shells","generic",20,"orange",50,"False","luzaks"
"232",7,5331,"truth_conditions","nondistinctive","legs","generic",21,"pink",70,"True","feps"
"233",7,1964,"truth_conditions","nondistinctive","ears","generic",22,"orange",70,"True","kazzes"
"234",7,1796,"truth_conditions","danger/distinct","scales","generic",23,"blue",90,"True","reesles"
"235",7,6827,"truth_conditions","danger/distinct","fur","generic",24,"yellow",70,"True","ollers"
"236",7,2768,"truth_conditions","danger/distinct","tails","generic",25,"purple",30,"False","taifels"
"237",7,2165,"truth_conditions","nondistinctive","shells","generic",26,"purple",50,"False","javs"
"238",7,4267,"truth_conditions","danger/distinct","teeth","generic",27,"green",10,"False","zoovs"
"239",7,1583,"truth_conditions","bare","scales","generic",28,"red",90,"True","blins"
"240",7,2356,"truth_conditions","nondistinctive","spots","generic",29,"gold",90,"True","stups"
"241",8,23231,"truth_conditions","danger/distinct","ears","generic",0,"pink",90,"True","elleps"
"242",8,95679,"truth_conditions","nondistinctive","scales","generic",1,"yellow",70,"True","dorbs"
"243",8,193133,"truth_conditions","danger/distinct","shells","generic",2,"orange",90,"True","luzaks"
"244",8,6219,"truth_conditions","bare","teeth","generic",3,"pink",70,"True","krivels"
"245",8,10735,"truth_conditions","bare","shells","generic",4,"green",10,"True","moxes"
"246",8,12664,"truth_conditions","nondistinctive","legs","generic",5,"pink",50,"True","feps"
"247",8,93210,"truth_conditions","danger/distinct","teeth","generic",6,"green",50,"True","zoovs"
"248",8,8487,"truth_conditions","nondistinctive","stripes","generic",7,"silver",50,"True","frams"
"249",8,6837,"truth_conditions","nondistinctive","tails","generic",8,"green",90,"True","trufts"
"250",8,46224,"truth_conditions","danger/distinct","legs","generic",9,"silver",10,"True","ackles"
"251",8,5021,"truth_conditions","danger/distinct","fur","generic",10,"yellow",70,"True","ollers"
"252",8,22320,"truth_conditions","nondistinctive","fur","generic",11,"copper",30,"True","kweps"
"253",8,4568,"truth_conditions","nondistinctive","teeth","generic",12,"blue",30,"True","thups"
"254",8,4616,"truth_conditions","nondistinctive","spots","generic",13,"gold",10,"True","stups"
"255",8,29434,"truth_conditions","danger/distinct","tails","generic",14,"purple",50,"True","taifels"
"256",8,3773,"truth_conditions","bare","legs","generic",15,"yellow",30,"True","ludinos"
"257",8,2409,"truth_conditions","bare","tails","generic",16,"orange",30,"True","zorbs"
"258",8,2982,"truth_conditions","bare","stripes","generic",17,"gold",90,"True","daiths"
"259",8,23616,"truth_conditions","nondistinctive","shells","generic",18,"purple",10,"True","javs"
"260",8,5271,"truth_conditions","danger/distinct","feathers","generic",19,"gold",10,"True","plovs"
"261",8,6935,"truth_conditions","nondistinctive","feathers","generic",20,"red",70,"True","noobs"
"262",8,3616,"truth_conditions","bare","feathers","generic",21,"purple",50,"True","lorches"
"263",8,7136,"truth_conditions","bare","ears","generic",22,"blue",70,"True","cheebas"
"264",8,5128,"truth_conditions","danger/distinct","stripes","generic",23,"copper",30,"True","mooks"
"265",8,9104,"truth_conditions","danger/distinct","scales","generic",24,"blue",70,"True","reesles"
"266",8,8847,"truth_conditions","bare","spots","generic",25,"copper",90,"True","glippets"
"267",8,3816,"truth_conditions","bare","scales","generic",26,"red",10,"True","blins"
"268",8,3922,"truth_conditions","bare","fur","generic",27,"silver",50,"True","morseths"
"269",8,6023,"truth_conditions","nondistinctive","ears","generic",28,"orange",90,"True","kazzes"
"270",8,5837,"truth_conditions","danger/distinct","spots","generic",29,"red",30,"True","sapers"
"271",9,10234,"truth_conditions","nondistinctive","fur","generic",0,"copper",70,"True","kweps"
"272",9,16187,"truth_conditions","nondistinctive","shells","generic",1,"purple",90,"True","javs"
"273",9,5067,"truth_conditions","nondistinctive","tails","generic",2,"green",50,"True","trufts"
"274",9,6712,"truth_conditions","danger/distinct","fur","generic",3,"yellow",10,"False","ollers"
"275",9,136492,"truth_conditions","danger/distinct","spots","generic",4,"red",90,"True","sapers"
"276",9,4247,"truth_conditions","danger/distinct","scales","generic",5,"blue",90,"True","reesles"
"277",9,28001,"truth_conditions","nondistinctive","scales","generic",6,"yellow",30,"False","dorbs"
"278",9,3452,"truth_conditions","bare","stripes","generic",7,"gold",10,"False","daiths"
"279",9,5071,"truth_conditions","danger/distinct","shells","generic",8,"orange",50,"True","luzaks"
"280",9,3275,"truth_conditions","bare","spots","generic",9,"copper",50,"True","glippets"
"281",9,2233,"truth_conditions","bare","ears","generic",10,"blue",90,"True","cheebas"
"282",9,4982,"truth_conditions","danger/distinct","ears","generic",11,"pink",30,"True","elleps"
"283",9,3286,"truth_conditions","bare","shells","generic",12,"green",30,"False","moxes"
"284",9,10031,"truth_conditions","danger/distinct","teeth","generic",13,"green",70,"True","zoovs"
"285",9,3452,"truth_conditions","nondistinctive","spots","generic",14,"gold",90,"True","stups"
"286",9,4491,"truth_conditions","bare","teeth","generic",15,"pink",50,"False","krivels"
"287",9,13045,"truth_conditions","danger/distinct","tails","generic",16,"purple",50,"True","taifels"
"288",9,4061,"truth_conditions","nondistinctive","feathers","generic",17,"red",50,"False","noobs"
"289",9,3030,"truth_conditions","bare","scales","generic",18,"red",70,"True","blins"
"290",9,1810,"truth_conditions","bare","legs","generic",19,"yellow",90,"True","ludinos"
"291",9,4533,"truth_conditions","nondistinctive","legs","generic",20,"pink",10,"False","feps"
"292",9,5057,"truth_conditions","danger/distinct","feathers","generic",21,"gold",10,"True","plovs"
"293",9,1996,"truth_conditions","bare","tails","generic",22,"orange",70,"True","zorbs"
"294",9,4273,"truth_conditions","danger/distinct","stripes","generic",23,"copper",70,"True","mooks"
"295",9,4188,"truth_conditions","nondistinctive","ears","generic",24,"orange",30,"False","kazzes"
"296",9,4319,"truth_conditions","nondistinctive","stripes","generic",25,"silver",10,"False","frams"
"297",9,3633,"truth_conditions","danger/distinct","legs","generic",26,"silver",30,"True","ackles"
"298",9,2788,"truth_conditions","bare","feathers","generic",27,"purple",30,"False","lorches"
"299",9,4905,"truth_conditions","nondistinctive","teeth","generic",28,"blue",70,"True","thups"
"300",9,4803,"truth_conditions","bare","fur","generic",29,"silver",10,"False","morseths"
"301",10,8876,"truth_conditions","nondistinctive","spots","generic",0,"gold",50,"True","stups"
"302",10,4657,"truth_conditions","bare","shells","generic",1,"green",70,"True","moxes"
"303",10,7849,"truth_conditions","nondistinctive","shells","generic",2,"purple",50,"True","javs"
"304",10,7278,"truth_conditions","danger/distinct","fur","generic",3,"yellow",70,"True","ollers"
"305",10,7338,"truth_conditions","danger/distinct","stripes","generic",4,"copper",10,"True","mooks"
"306",10,2607,"truth_conditions","bare","stripes","generic",5,"gold",90,"True","daiths"
"307",10,2612,"truth_conditions","bare","fur","generic",6,"silver",50,"True","morseths"
"308",10,2899,"truth_conditions","bare","teeth","generic",7,"pink",70,"True","krivels"
"309",10,4752,"truth_conditions","bare","tails","generic",8,"orange",30,"True","zorbs"
"310",10,5366,"truth_conditions","nondistinctive","scales","generic",9,"yellow",90,"True","dorbs"
"311",10,3449,"truth_conditions","danger/distinct","spots","generic",10,"red",90,"True","sapers"
"312",10,4018,"truth_conditions","danger/distinct","tails","generic",11,"purple",30,"True","taifels"
"313",10,5466,"truth_conditions","danger/distinct","scales","generic",12,"blue",90,"True","reesles"
"314",10,4118,"truth_conditions","danger/distinct","ears","generic",13,"pink",50,"True","elleps"
"315",10,4299,"truth_conditions","nondistinctive","fur","generic",14,"copper",70,"True","kweps"
"316",10,3649,"truth_conditions","bare","ears","generic",15,"blue",10,"True","cheebas"
"317",10,3588,"truth_conditions","nondistinctive","feathers","generic",16,"red",30,"True","noobs"
"318",10,4146,"truth_conditions","nondistinctive","teeth","generic",17,"blue",70,"True","thups"
"319",10,4992,"truth_conditions","danger/distinct","teeth","generic",18,"green",10,"True","zoovs"
"320",10,3798,"truth_conditions","danger/distinct","legs","generic",19,"silver",30,"True","ackles"
"321",10,3580,"truth_conditions","bare","scales","generic",20,"red",10,"True","blins"
"322",10,2556,"truth_conditions","bare","legs","generic",21,"yellow",30,"True","ludinos"
"323",10,7159,"truth_conditions","danger/distinct","shells","generic",22,"orange",50,"True","luzaks"
"324",10,4599,"truth_conditions","nondistinctive","ears","generic",23,"orange",90,"True","kazzes"
"325",10,2458,"truth_conditions","bare","feathers","generic",24,"purple",90,"True","lorches"
"326",10,3333,"truth_conditions","bare","spots","generic",25,"copper",50,"True","glippets"
"327",10,3446,"truth_conditions","nondistinctive","stripes","generic",26,"silver",10,"True","frams"
"328",10,5153,"truth_conditions","nondistinctive","legs","generic",27,"pink",30,"True","feps"
"329",10,3120,"truth_conditions","nondistinctive","tails","generic",28,"green",10,"True","trufts"
"330",10,3391,"truth_conditions","danger/distinct","feathers","generic",29,"gold",70,"True","plovs"
"331",11,2075,"truth_conditions","bare","ears","generic",0,"blue",90,"True","cheebas"
"332",11,1994,"truth_conditions","danger/distinct","scales","generic",1,"blue",50,"False","reesles"
"333",11,2441,"truth_conditions","danger/distinct","stripes","generic",2,"copper",30,"True","mooks"
"334",11,1765,"truth_conditions","nondistinctive","fur","generic",3,"copper",90,"False","kweps"
"335",11,2521,"truth_conditions","nondistinctive","teeth","generic",4,"blue",10,"True","thups"
"336",11,3838,"truth_conditions","bare","shells","generic",5,"green",10,"True","moxes"
"337",11,2839,"truth_conditions","nondistinctive","tails","generic",6,"green",50,"True","trufts"
"338",11,2784,"truth_conditions","bare","feathers","generic",7,"purple",50,"True","lorches"
"339",11,4439,"truth_conditions","danger/distinct","feathers","generic",8,"gold",30,"True","plovs"
"340",11,4927,"truth_conditions","bare","fur","generic",9,"silver",10,"True","morseths"
"341",11,1784,"truth_conditions","bare","legs","generic",10,"yellow",70,"True","ludinos"
"342",11,4856,"truth_conditions","danger/distinct","spots","generic",11,"red",90,"False","sapers"
"343",11,2223,"truth_conditions","bare","tails","generic",12,"orange",90,"True","zorbs"
"344",11,3473,"truth_conditions","danger/distinct","shells","generic",13,"orange",90,"True","luzaks"
"345",11,1895,"truth_conditions","danger/distinct","fur","generic",14,"yellow",70,"True","ollers"
"346",11,2160,"truth_conditions","danger/distinct","teeth","generic",15,"green",70,"True","zoovs"
"347",11,2191,"truth_conditions","bare","teeth","generic",16,"pink",30,"True","krivels"
"348",11,1407,"truth_conditions","nondistinctive","feathers","generic",17,"red",10,"True","noobs"
"349",11,1424,"truth_conditions","nondistinctive","stripes","generic",18,"silver",30,"True","frams"
"350",11,7200,"truth_conditions","nondistinctive","shells","generic",19,"purple",30,"True","javs"
"351",11,1055,"truth_conditions","bare","spots","generic",20,"copper",50,"True","glippets"
"352",11,1800,"truth_conditions","danger/distinct","ears","generic",21,"pink",10,"True","elleps"
"353",11,1976,"truth_conditions","bare","stripes","generic",22,"gold",30,"True","daiths"
"354",11,1535,"truth_conditions","nondistinctive","scales","generic",23,"yellow",70,"True","dorbs"
"355",11,1361,"truth_conditions","danger/distinct","tails","generic",24,"purple",50,"True","taifels"
"356",11,1985,"truth_conditions","nondistinctive","ears","generic",25,"orange",70,"True","kazzes"
"357",11,1773,"truth_conditions","nondistinctive","spots","generic",26,"gold",90,"True","stups"
"358",11,1560,"truth_conditions","danger/distinct","legs","generic",27,"silver",10,"True","ackles"
"359",11,1445,"truth_conditions","bare","scales","generic",28,"red",70,"True","blins"
"360",11,1568,"truth_conditions","nondistinctive","legs","generic",29,"pink",50,"True","feps"
"361",12,9586,"truth_conditions","bare","ears","generic",0,"blue",70,"True","cheebas"
"362",12,7831,"truth_conditions","nondistinctive","stripes","generic",1,"silver",30,"False","frams"
"363",12,3865,"truth_conditions","bare","legs","generic",2,"yellow",90,"True","ludinos"
"364",12,3085,"truth_conditions","bare","tails","generic",3,"orange",30,"False","zorbs"
"365",12,6868,"truth_conditions","nondistinctive","tails","generic",4,"green",70,"True","trufts"
"366",12,4250,"truth_conditions","bare","stripes","generic",5,"gold",30,"False","daiths"
"367",12,2564,"truth_conditions","nondistinctive","legs","generic",6,"pink",50,"True","feps"
"368",12,3401,"truth_conditions","danger/distinct","tails","generic",7,"purple",90,"True","taifels"
"369",12,5767,"truth_conditions","danger/distinct","ears","generic",8,"pink",70,"True","elleps"
"370",12,2400,"truth_conditions","bare","feathers","generic",9,"purple",90,"True","lorches"
"371",12,3337,"truth_conditions","bare","spots","generic",10,"copper",10,"False","glippets"
"372",12,3595,"truth_conditions","danger/distinct","fur","generic",11,"yellow",10,"False","ollers"
"373",12,2899,"truth_conditions","danger/distinct","spots","generic",12,"red",90,"True","sapers"
"374",12,3102,"truth_conditions","danger/distinct","legs","generic",13,"silver",50,"True","ackles"
"375",12,3849,"truth_conditions","danger/distinct","feathers","generic",14,"gold",50,"True","plovs"
"376",12,2768,"truth_conditions","danger/distinct","teeth","generic",15,"green",30,"False","zoovs"
"377",12,6799,"truth_conditions","bare","fur","generic",16,"silver",50,"True","morseths"
"378",12,2398,"truth_conditions","bare","teeth","generic",17,"pink",10,"False","krivels"
"379",12,4183,"truth_conditions","danger/distinct","stripes","generic",18,"copper",30,"False","mooks"
"380",12,2367,"truth_conditions","bare","scales","generic",19,"red",50,"True","blins"
"381",12,3216,"truth_conditions","danger/distinct","shells","generic",20,"orange",70,"True","luzaks"
"382",12,2418,"truth_conditions","nondistinctive","feathers","generic",21,"red",50,"True","noobs"
"383",12,2332,"truth_conditions","danger/distinct","scales","generic",22,"blue",10,"False","reesles"
"384",12,1986,"truth_conditions","nondistinctive","teeth","generic",23,"blue",90,"True","thups"
"385",12,4080,"truth_conditions","nondistinctive","shells","generic",24,"purple",90,"True","javs"
"386",12,2818,"truth_conditions","nondistinctive","scales","generic",25,"yellow",70,"True","dorbs"
"387",12,2434,"truth_conditions","nondistinctive","fur","generic",26,"copper",10,"False","kweps"
"388",12,2685,"truth_conditions","nondistinctive","ears","generic",27,"orange",30,"False","kazzes"
"389",12,4150,"truth_conditions","bare","shells","generic",28,"green",70,"True","moxes"
"390",12,2248,"truth_conditions","nondistinctive","spots","generic",29,"gold",10,"False","stups"
"391",13,6971,"truth_conditions","bare","feathers","generic",0,"purple",30,"True","lorches"
"392",13,9702,"truth_conditions","danger/distinct","scales","generic",1,"blue",10,"True","reesles"
"393",13,2809,"truth_conditions","bare","tails","generic",2,"orange",70,"True","zorbs"
"394",13,8023,"truth_conditions","danger/distinct","legs","generic",3,"silver",50,"True","ackles"
"395",13,3286,"truth_conditions","bare","stripes","generic",4,"gold",90,"True","daiths"
"396",13,5853,"truth_conditions","nondistinctive","tails","generic",5,"green",50,"True","trufts"
"397",13,2188,"truth_conditions","nondistinctive","fur","generic",6,"copper",90,"True","kweps"
"398",13,8545,"truth_conditions","nondistinctive","spots","generic",7,"gold",10,"False","stups"
"399",13,2367,"truth_conditions","bare","fur","generic",8,"silver",90,"True","morseths"
"400",13,3704,"truth_conditions","danger/distinct","stripes","generic",9,"copper",10,"False","mooks"
"401",13,1655,"truth_conditions","nondistinctive","ears","generic",10,"orange",70,"True","kazzes"
"402",13,2685,"truth_conditions","nondistinctive","shells","generic",11,"purple",10,"False","javs"
"403",13,1691,"truth_conditions","nondistinctive","legs","generic",12,"pink",30,"False","feps"
"404",13,1523,"truth_conditions","nondistinctive","scales","generic",13,"yellow",50,"True","dorbs"
"405",13,3325,"truth_conditions","danger/distinct","feathers","generic",14,"gold",90,"True","plovs"
"406",13,2188,"truth_conditions","bare","shells","generic",15,"green",70,"True","moxes"
"407",13,2197,"truth_conditions","bare","teeth","generic",16,"pink",10,"False","krivels"
"408",13,1276,"truth_conditions","bare","ears","generic",17,"blue",50,"True","cheebas"
"409",13,6297,"truth_conditions","danger/distinct","ears","generic",18,"pink",70,"True","elleps"
"410",13,2562,"truth_conditions","danger/distinct","tails","generic",19,"purple",50,"True","taifels"
"411",13,1481,"truth_conditions","nondistinctive","teeth","generic",20,"blue",30,"False","thups"
"412",13,2185,"truth_conditions","nondistinctive","feathers","generic",21,"red",90,"True","noobs"
"413",13,2522,"truth_conditions","nondistinctive","stripes","generic",22,"silver",70,"True","frams"
"414",13,2842,"truth_conditions","danger/distinct","spots","generic",23,"red",70,"True","sapers"
"415",13,2376,"truth_conditions","bare","scales","generic",24,"red",10,"False","blins"
"416",13,1735,"truth_conditions","bare","spots","generic",25,"copper",50,"True","glippets"
"417",13,3179,"truth_conditions","bare","legs","generic",26,"yellow",30,"False","ludinos"
"418",13,3083,"truth_conditions","danger/distinct","fur","generic",27,"yellow",90,"True","ollers"
"419",13,1678,"truth_conditions","danger/distinct","teeth","generic",28,"green",30,"False","zoovs"
"420",13,4005,"truth_conditions","danger/distinct","shells","generic",29,"orange",30,"False","luzaks"
"421",14,7313,"truth_conditions","bare","legs","generic",0,"yellow",70,"True","ludinos"
"422",14,11400,"truth_conditions","danger/distinct","shells","generic",1,"orange",50,"True","luzaks"
"423",14,9484,"truth_conditions","nondistinctive","shells","generic",2,"purple",50,"True","javs"
"424",14,5231,"truth_conditions","nondistinctive","ears","generic",3,"orange",70,"True","kazzes"
"425",14,6075,"truth_conditions","nondistinctive","scales","generic",4,"yellow",90,"True","dorbs"
"426",14,3726,"truth_conditions","bare","ears","generic",5,"blue",50,"True","cheebas"
"427",14,13735,"truth_conditions","danger/distinct","legs","generic",6,"silver",90,"True","ackles"
"428",14,5354,"truth_conditions","danger/distinct","fur","generic",7,"yellow",70,"True","ollers"
"429",14,4374,"truth_conditions","danger/distinct","scales","generic",8,"blue",10,"True","reesles"
"430",14,2686,"truth_conditions","bare","shells","generic",9,"green",50,"True","moxes"
"431",14,2071,"truth_conditions","bare","spots","generic",10,"copper",10,"True","glippets"
"432",14,4328,"truth_conditions","nondistinctive","teeth","generic",11,"blue",30,"True","thups"
"433",14,3234,"truth_conditions","danger/distinct","stripes","generic",12,"copper",70,"True","mooks"
"434",14,4017,"truth_conditions","nondistinctive","spots","generic",13,"gold",70,"True","stups"
"435",14,3748,"truth_conditions","nondistinctive","fur","generic",14,"copper",90,"True","kweps"
"436",14,3138,"truth_conditions","bare","teeth","generic",15,"pink",70,"True","krivels"
"437",14,3536,"truth_conditions","bare","tails","generic",16,"orange",30,"True","zorbs"
"438",14,4568,"truth_conditions","nondistinctive","legs","generic",17,"pink",10,"True","feps"
"439",14,3022,"truth_conditions","nondistinctive","feathers","generic",18,"red",30,"True","noobs"
"440",14,3237,"truth_conditions","danger/distinct","teeth","generic",19,"green",50,"True","zoovs"
"441",14,3355,"truth_conditions","nondistinctive","stripes","generic",20,"silver",10,"True","frams"
"442",14,3375,"truth_conditions","nondistinctive","tails","generic",21,"green",50,"True","trufts"
"443",14,5044,"truth_conditions","danger/distinct","ears","generic",22,"pink",10,"True","elleps"
"444",14,3048,"truth_conditions","bare","feathers","generic",23,"purple",30,"True","lorches"
"445",14,4450,"truth_conditions","danger/distinct","feathers","generic",24,"gold",30,"True","plovs"
"446",14,4991,"truth_conditions","bare","fur","generic",25,"silver",10,"True","morseths"
"447",14,4839,"truth_conditions","danger/distinct","tails","generic",26,"purple",30,"True","taifels"
"448",14,2621,"truth_conditions","bare","scales","generic",27,"red",90,"True","blins"
"449",14,1844,"truth_conditions","bare","stripes","generic",28,"gold",90,"True","daiths"
"450",14,6666,"truth_conditions","danger/distinct","spots","generic",29,"red",90,"True","sapers"
"451",15,12397,"truth_conditions","nondistinctive","scales","generic",0,"yellow",90,"False","dorbs"
"452",15,8560,"truth_conditions","nondistinctive","legs","generic",1,"pink",70,"False","feps"
"453",15,5988,"truth_conditions","bare","tails","generic",2,"orange",30,"False","zorbs"
"454",15,6363,"truth_conditions","nondistinctive","shells","generic",3,"purple",70,"False","javs"
"455",15,6116,"truth_conditions","nondistinctive","ears","generic",4,"orange",10,"False","kazzes"
"456",15,4910,"truth_conditions","danger/distinct","teeth","generic",5,"green",70,"False","zoovs"
"457",15,3394,"truth_conditions","bare","spots","generic",6,"copper",70,"False","glippets"
"458",15,4659,"truth_conditions","nondistinctive","teeth","generic",7,"blue",30,"False","thups"
"459",15,3105,"truth_conditions","bare","scales","generic",8,"red",90,"False","blins"
"460",15,3977,"truth_conditions","danger/distinct","tails","generic",9,"purple",70,"False","taifels"
"461",15,6498,"truth_conditions","bare","teeth","generic",10,"pink",90,"False","krivels"
"462",15,6767,"truth_conditions","danger/distinct","stripes","generic",11,"copper",10,"False","mooks"
"463",15,4547,"truth_conditions","danger/distinct","ears","generic",12,"pink",30,"False","elleps"
"464",15,4213,"truth_conditions","bare","fur","generic",13,"silver",50,"False","morseths"
"465",15,3589,"truth_conditions","bare","feathers","generic",14,"purple",70,"False","lorches"
"466",15,2815,"truth_conditions","bare","shells","generic",15,"green",10,"False","moxes"
"467",15,4649,"truth_conditions","nondistinctive","spots","generic",16,"gold",30,"False","stups"
"468",15,3038,"truth_conditions","bare","ears","generic",17,"blue",50,"False","cheebas"
"469",15,8600,"truth_conditions","danger/distinct","scales","generic",18,"blue",90,"False","reesles"
"470",15,4196,"truth_conditions","nondistinctive","tails","generic",19,"green",90,"False","trufts"
"471",15,3712,"truth_conditions","nondistinctive","feathers","generic",20,"red",10,"False","noobs"
"472",15,4836,"truth_conditions","nondistinctive","stripes","generic",21,"silver",50,"False","frams"
"473",15,3547,"truth_conditions","danger/distinct","feathers","generic",22,"gold",50,"False","plovs"
"474",15,4330,"truth_conditions","danger/distinct","legs","generic",23,"silver",50,"False","ackles"
"475",15,3784,"truth_conditions","bare","stripes","generic",24,"gold",10,"False","daiths"
"476",15,4855,"truth_conditions","danger/distinct","fur","generic",25,"yellow",10,"False","ollers"
"477",15,5182,"truth_conditions","nondistinctive","fur","generic",26,"copper",50,"False","kweps"
"478",15,3624,"truth_conditions","danger/distinct","shells","generic",27,"orange",90,"False","luzaks"
"479",15,4767,"truth_conditions","danger/distinct","spots","generic",28,"red",30,"False","sapers"
"480",15,3120,"truth_conditions","bare","legs","generic",29,"yellow",30,"False","ludinos"
"481",16,5226,"truth_conditions","bare","spots","generic",0,"copper",70,"True","glippets"
"482",16,3710,"truth_conditions","danger/distinct","shells","generic",1,"orange",90,"True","luzaks"
"483",16,3149,"truth_conditions","bare","scales","generic",2,"red",70,"True","blins"
"484",16,2455,"truth_conditions","nondistinctive","tails","generic",3,"green",30,"True","trufts"
"485",16,4071,"truth_conditions","danger/distinct","feathers","generic",4,"gold",70,"True","plovs"
"486",16,1936,"truth_conditions","bare","tails","generic",5,"orange",90,"True","zorbs"
"487",16,2240,"truth_conditions","nondistinctive","stripes","generic",6,"silver",30,"True","frams"
"488",16,2263,"truth_conditions","danger/distinct","teeth","generic",7,"green",30,"True","zoovs"
"489",16,1359,"truth_conditions","nondistinctive","ears","generic",8,"orange",90,"True","kazzes"
"490",16,2335,"truth_conditions","danger/distinct","spots","generic",9,"red",10,"True","sapers"
"491",16,1494,"truth_conditions","nondistinctive","feathers","generic",10,"red",10,"True","noobs"
"492",16,2984,"truth_conditions","bare","legs","generic",11,"yellow",10,"True","ludinos"
"493",16,2279,"truth_conditions","bare","shells","generic",12,"green",10,"True","moxes"
"494",16,20083,"truth_conditions","nondistinctive","fur","generic",13,"copper",70,"True","kweps"
"495",16,1460,"truth_conditions","bare","stripes","generic",14,"gold",50,"True","daiths"
"496",16,1727,"truth_conditions","danger/distinct","scales","generic",15,"blue",70,"True","reesles"
"497",16,2670,"truth_conditions","bare","feathers","generic",16,"purple",90,"True","lorches"
"498",16,4184,"truth_conditions","nondistinctive","scales","generic",17,"yellow",90,"True","dorbs"
"499",16,3383,"truth_conditions","danger/distinct","legs","generic",18,"silver",30,"True","ackles"
"500",16,1992,"truth_conditions","danger/distinct","tails","generic",19,"purple",90,"True","taifels"
"501",16,6009,"truth_conditions","bare","fur","generic",20,"silver",50,"True","morseths"
"502",16,2745,"truth_conditions","bare","ears","generic",21,"blue",30,"True","cheebas"
"503",16,2448,"truth_conditions","nondistinctive","shells","generic",22,"purple",70,"True","javs"
"504",16,2893,"truth_conditions","bare","teeth","generic",23,"pink",30,"True","krivels"
"505",16,1967,"truth_conditions","danger/distinct","stripes","generic",24,"copper",50,"True","mooks"
"506",16,2058,"truth_conditions","danger/distinct","fur","generic",25,"yellow",10,"True","ollers"
"507",16,4117,"truth_conditions","nondistinctive","spots","generic",26,"gold",10,"True","stups"
"508",16,1744,"truth_conditions","nondistinctive","teeth","generic",27,"blue",50,"True","thups"
"509",16,3047,"truth_conditions","nondistinctive","legs","generic",28,"pink",50,"True","feps"
"510",16,1926,"truth_conditions","danger/distinct","ears","generic",29,"pink",50,"True","elleps"
"511",17,26423,"truth_conditions","danger/distinct","scales","generic",0,"blue",10,"True","reesles"
"512",17,6911,"truth_conditions","bare","stripes","generic",1,"gold",70,"True","daiths"
"513",17,11815,"truth_conditions","danger/distinct","ears","generic",2,"pink",50,"True","elleps"
"514",17,13580,"truth_conditions","nondistinctive","shells","generic",3,"purple",30,"True","javs"
"515",17,5662,"truth_conditions","bare","teeth","generic",4,"pink",90,"True","krivels"
"516",17,11233,"truth_conditions","danger/distinct","feathers","generic",5,"gold",30,"True","plovs"
"517",17,11534,"truth_conditions","nondistinctive","ears","generic",6,"orange",30,"True","kazzes"
"518",17,6597,"truth_conditions","bare","scales","generic",7,"red",10,"True","blins"
"519",17,12205,"truth_conditions","danger/distinct","shells","generic",8,"orange",30,"True","luzaks"
"520",17,8346,"truth_conditions","danger/distinct","legs","generic",9,"silver",10,"True","ackles"
"521",17,11799,"truth_conditions","nondistinctive","scales","generic",10,"yellow",50,"True","dorbs"
"522",17,10319,"truth_conditions","bare","legs","generic",11,"yellow",10,"False","ludinos"
"523",17,11348,"truth_conditions","bare","spots","generic",12,"copper",30,"False","glippets"
"524",17,6681,"truth_conditions","danger/distinct","teeth","generic",13,"green",90,"True","zoovs"
"525",17,10085,"truth_conditions","danger/distinct","fur","generic",14,"yellow",90,"True","ollers"
"526",17,7418,"truth_conditions","danger/distinct","spots","generic",15,"red",70,"True","sapers"
"527",17,5108,"truth_conditions","bare","tails","generic",16,"orange",50,"True","zorbs"
"528",17,9099,"truth_conditions","nondistinctive","legs","generic",17,"pink",70,"True","feps"
"529",17,7077,"truth_conditions","bare","fur","generic",18,"silver",70,"True","morseths"
"530",17,5496,"truth_conditions","bare","shells","generic",19,"green",30,"False","moxes"
"531",17,8334,"truth_conditions","nondistinctive","fur","generic",20,"copper",90,"True","kweps"
"532",17,7276,"truth_conditions","nondistinctive","spots","generic",21,"gold",90,"True","stups"
"533",17,6709,"truth_conditions","nondistinctive","stripes","generic",22,"silver",50,"True","frams"
"534",17,3901,"truth_conditions","bare","feathers","generic",23,"purple",90,"True","lorches"
"535",17,7409,"truth_conditions","danger/distinct","stripes","generic",24,"copper",70,"True","mooks"
"536",17,9298,"truth_conditions","danger/distinct","tails","generic",25,"purple",50,"True","taifels"
"537",17,6549,"truth_conditions","nondistinctive","feathers","generic",26,"red",70,"True","noobs"
"538",17,6107,"truth_conditions","nondistinctive","teeth","generic",27,"blue",10,"False","thups"
"539",17,8383,"truth_conditions","nondistinctive","tails","generic",28,"green",10,"False","trufts"
"540",17,4718,"truth_conditions","bare","ears","generic",29,"blue",50,"True","cheebas"
"541",18,12090,"truth_conditions","bare","spots","generic",0,"copper",10,"True","glippets"
"542",18,24535,"truth_conditions","nondistinctive","teeth","generic",1,"blue",50,"False","thups"
"543",18,16215,"truth_conditions","nondistinctive","stripes","generic",2,"silver",70,"True","frams"
"544",18,13760,"truth_conditions","danger/distinct","spots","generic",3,"red",10,"False","sapers"
"545",18,16715,"truth_conditions","danger/distinct","ears","generic",4,"pink",10,"False","elleps"
"546",18,5071,"truth_conditions","bare","fur","generic",5,"silver",90,"True","morseths"
"547",18,4912,"truth_conditions","bare","feathers","generic",6,"purple",90,"True","lorches"
"548",18,6287,"truth_conditions","danger/distinct","scales","generic",7,"blue",90,"True","reesles"
"549",18,7848,"truth_conditions","danger/distinct","legs","generic",8,"silver",70,"True","ackles"
"550",18,6999,"truth_conditions","bare","shells","generic",9,"green",50,"False","moxes"
"551",18,3159,"truth_conditions","bare","tails","generic",10,"orange",50,"False","zorbs"
"552",18,8152,"truth_conditions","nondistinctive","scales","generic",11,"yellow",30,"False","dorbs"
"553",18,11052,"truth_conditions","nondistinctive","shells","generic",12,"purple",30,"False","javs"
"554",18,9383,"truth_conditions","danger/distinct","feathers","generic",13,"gold",70,"True","plovs"
"555",18,9744,"truth_conditions","nondistinctive","legs","generic",14,"pink",10,"False","feps"
"556",18,8271,"truth_conditions","danger/distinct","tails","generic",15,"purple",30,"False","taifels"
"557",18,4991,"truth_conditions","bare","stripes","generic",16,"gold",70,"True","daiths"
"558",18,9368,"truth_conditions","danger/distinct","shells","generic",17,"orange",30,"False","luzaks"
"559",18,7382,"truth_conditions","bare","legs","generic",18,"yellow",30,"False","ludinos"
"560",18,5456,"truth_conditions","bare","teeth","generic",19,"pink",10,"False","krivels"
"561",18,15827,"truth_conditions","danger/distinct","teeth","generic",20,"green",90,"True","zoovs"
"562",18,7984,"truth_conditions","danger/distinct","fur","generic",21,"yellow",50,"True","ollers"
"563",18,6375,"truth_conditions","nondistinctive","feathers","generic",22,"red",50,"False","noobs"
"564",18,5120,"truth_conditions","bare","ears","generic",23,"blue",70,"True","cheebas"
"565",18,6488,"truth_conditions","nondistinctive","tails","generic",24,"green",90,"True","trufts"
"566",18,11560,"truth_conditions","danger/distinct","stripes","generic",25,"copper",50,"False","mooks"
"567",18,6704,"truth_conditions","nondistinctive","spots","generic",26,"gold",90,"True","stups"
"568",18,9621,"truth_conditions","nondistinctive","ears","generic",27,"orange",70,"False","kazzes"
"569",18,6920,"truth_conditions","nondistinctive","fur","generic",28,"copper",10,"False","kweps"
"570",18,3999,"truth_conditions","bare","scales","generic",29,"red",30,"False","blins"
"571",19,10763,"truth_conditions","nondistinctive","teeth","generic",0,"blue",30,"False","thups"
"572",19,16086,"truth_conditions","danger/distinct","ears","generic",1,"pink",30,"False","elleps"
"573",19,9208,"truth_conditions","nondistinctive","stripes","generic",2,"silver",50,"False","frams"
"574",19,4808,"truth_conditions","nondistinctive","spots","generic",3,"gold",70,"False","stups"
"575",19,9224,"truth_conditions","danger/distinct","feathers","generic",4,"gold",50,"False","plovs"
"576",19,7345,"truth_conditions","danger/distinct","stripes","generic",5,"copper",90,"False","mooks"
"577",19,4079,"truth_conditions","nondistinctive","ears","generic",6,"orange",90,"False","kazzes"
"578",19,5853,"truth_conditions","nondistinctive","fur","generic",7,"copper",10,"False","kweps"
"579",19,6519,"truth_conditions","danger/distinct","shells","generic",8,"orange",10,"False","luzaks"
"580",19,6130,"truth_conditions","bare","ears","generic",9,"blue",30,"False","cheebas"
"581",19,7215,"truth_conditions","bare","shells","generic",10,"green",50,"False","moxes"
"582",19,5672,"truth_conditions","danger/distinct","scales","generic",11,"blue",50,"False","reesles"
"583",19,2841,"truth_conditions","bare","legs","generic",12,"yellow",10,"False","ludinos"
"584",19,4703,"truth_conditions","danger/distinct","spots","generic",13,"red",70,"False","sapers"
"585",19,6280,"truth_conditions","danger/distinct","tails","generic",14,"purple",30,"False","taifels"
"586",19,2768,"truth_conditions","bare","spots","generic",15,"copper",10,"False","glippets"
"587",19,4168,"truth_conditions","bare","tails","generic",16,"orange",90,"False","zorbs"
"588",19,4397,"truth_conditions","danger/distinct","teeth","generic",17,"green",70,"False","zoovs"
"589",19,3074,"truth_conditions","nondistinctive","scales","generic",18,"yellow",50,"False","dorbs"
"590",19,3299,"truth_conditions","bare","fur","generic",19,"silver",30,"False","morseths"
"591",19,2115,"truth_conditions","danger/distinct","legs","generic",20,"silver",90,"False","ackles"
"592",19,3599,"truth_conditions","danger/distinct","fur","generic",21,"yellow",10,"False","ollers"
"593",19,2056,"truth_conditions","nondistinctive","feathers","generic",22,"red",90,"False","noobs"
"594",19,3632,"truth_conditions","bare","stripes","generic",23,"gold",90,"False","daiths"
"595",19,6039,"truth_conditions","nondistinctive","tails","generic",24,"green",30,"False","trufts"
"596",19,3488,"truth_conditions","nondistinctive","shells","generic",25,"purple",10,"False","javs"
"597",19,1945,"truth_conditions","bare","scales","generic",26,"red",50,"False","blins"
"598",19,5274,"truth_conditions","nondistinctive","legs","generic",27,"pink",70,"False","feps"
"599",19,2773,"truth_conditions","bare","teeth","generic",28,"pink",70,"False","krivels"
"600",19,3399,"truth_conditions","bare","feathers","generic",29,"purple",70,"False","lorches"
"601",20,27756,"truth_conditions","danger/distinct","legs","generic",0,"silver",30,"True","ackles"
"602",20,9672,"truth_conditions","danger/distinct","scales","generic",1,"blue",30,"True","reesles"
"603",20,6121,"truth_conditions","bare","stripes","generic",2,"gold",10,"True","daiths"
"604",20,7538,"truth_conditions","nondistinctive","teeth","generic",3,"blue",50,"True","thups"
"605",20,11518,"truth_conditions","danger/distinct","spots","generic",4,"red",50,"True","sapers"
"606",20,10967,"truth_conditions","nondistinctive","feathers","generic",5,"red",50,"True","noobs"
"607",20,8607,"truth_conditions","nondistinctive","ears","generic",6,"orange",90,"True","kazzes"
"608",20,7930,"truth_conditions","danger/distinct","shells","generic",7,"orange",70,"True","luzaks"
"609",20,6721,"truth_conditions","danger/distinct","tails","generic",8,"purple",50,"True","taifels"
"610",20,8239,"truth_conditions","nondistinctive","shells","generic",9,"purple",30,"False","javs"
"611",20,7205,"truth_conditions","bare","shells","generic",10,"green",30,"False","moxes"
"612",20,6224,"truth_conditions","nondistinctive","legs","generic",11,"pink",10,"False","feps"
"613",20,6625,"truth_conditions","nondistinctive","scales","generic",12,"yellow",70,"True","dorbs"
"614",20,8121,"truth_conditions","nondistinctive","fur","generic",13,"copper",30,"False","kweps"
"615",20,9354,"truth_conditions","nondistinctive","spots","generic",14,"gold",70,"True","stups"
"616",20,6313,"truth_conditions","bare","fur","generic",15,"silver",90,"True","morseths"
"617",20,4411,"truth_conditions","danger/distinct","teeth","generic",16,"green",10,"True","zoovs"
"618",20,4251,"truth_conditions","bare","scales","generic",17,"red",30,"False","blins"
"619",20,3556,"truth_conditions","bare","tails","generic",18,"orange",90,"True","zorbs"
"620",20,2990,"truth_conditions","danger/distinct","stripes","generic",19,"copper",90,"True","mooks"
"621",20,3477,"truth_conditions","danger/distinct","feathers","generic",20,"gold",70,"True","plovs"
"622",20,3907,"truth_conditions","nondistinctive","stripes","generic",21,"silver",90,"True","frams"
"623",20,6696,"truth_conditions","bare","ears","generic",22,"blue",50,"True","cheebas"
"624",20,7862,"truth_conditions","nondistinctive","tails","generic",23,"green",10,"False","trufts"
"625",20,5893,"truth_conditions","bare","spots","generic",24,"copper",10,"False","glippets"
"626",20,5069,"truth_conditions","danger/distinct","fur","generic",25,"yellow",10,"True","ollers"
"627",20,3647,"truth_conditions","bare","feathers","generic",26,"purple",50,"True","lorches"
"628",20,2985,"truth_conditions","danger/distinct","ears","generic",27,"pink",90,"True","elleps"
"629",20,2898,"truth_conditions","bare","legs","generic",28,"yellow",70,"True","ludinos"
"630",20,2673,"truth_conditions","bare","teeth","generic",29,"pink",70,"True","krivels"
"631",21,16948,"truth_conditions","nondistinctive","shells","generic",0,"purple",30,"True","javs"
"632",21,16862,"truth_conditions","danger/distinct","scales","generic",1,"blue",70,"True","reesles"
"633",21,12039,"truth_conditions","nondistinctive","scales","generic",2,"yellow",90,"True","dorbs"
"634",21,15938,"truth_conditions","danger/distinct","feathers","generic",3,"gold",50,"True","plovs"
"635",21,10194,"truth_conditions","danger/distinct","fur","generic",4,"yellow",70,"True","ollers"
"636",21,9236,"truth_conditions","danger/distinct","legs","generic",5,"silver",50,"True","ackles"
"637",21,6212,"truth_conditions","nondistinctive","spots","generic",6,"gold",50,"True","stups"
"638",21,10839,"truth_conditions","danger/distinct","teeth","generic",7,"green",30,"True","zoovs"
"639",21,13374,"truth_conditions","nondistinctive","teeth","generic",8,"blue",10,"True","thups"
"640",21,4102,"truth_conditions","nondistinctive","ears","generic",9,"orange",50,"True","kazzes"
"641",21,5080,"truth_conditions","bare","fur","generic",10,"silver",90,"True","morseths"
"642",21,4902,"truth_conditions","bare","ears","generic",11,"blue",10,"True","cheebas"
"643",21,4851,"truth_conditions","nondistinctive","stripes","generic",12,"silver",70,"True","frams"
"644",21,4200,"truth_conditions","bare","feathers","generic",13,"purple",70,"True","lorches"
"645",21,5897,"truth_conditions","danger/distinct","spots","generic",14,"red",30,"True","sapers"
"646",21,2618,"truth_conditions","bare","teeth","generic",15,"pink",30,"True","krivels"
"647",21,3727,"truth_conditions","danger/distinct","tails","generic",16,"purple",90,"True","taifels"
"648",21,6404,"truth_conditions","danger/distinct","stripes","generic",17,"copper",10,"True","mooks"
"649",21,3317,"truth_conditions","bare","scales","generic",18,"red",50,"True","blins"
"650",21,2315,"truth_conditions","bare","legs","generic",19,"yellow",50,"True","ludinos"
"651",21,3699,"truth_conditions","nondistinctive","feathers","generic",20,"red",10,"True","noobs"
"652",21,3983,"truth_conditions","bare","shells","generic",21,"green",30,"True","moxes"
"653",21,2119,"truth_conditions","bare","stripes","generic",22,"gold",10,"True","daiths"
"654",21,4150,"truth_conditions","nondistinctive","fur","generic",23,"copper",90,"True","kweps"
"655",21,5965,"truth_conditions","bare","spots","generic",24,"copper",90,"True","glippets"
"656",21,3782,"truth_conditions","danger/distinct","ears","generic",25,"pink",90,"True","elleps"
"657",21,2970,"truth_conditions","nondistinctive","legs","generic",26,"pink",30,"True","feps"
"658",21,2313,"truth_conditions","danger/distinct","shells","generic",27,"orange",10,"True","luzaks"
"659",21,3466,"truth_conditions","bare","tails","generic",28,"orange",70,"True","zorbs"
"660",21,5087,"truth_conditions","nondistinctive","tails","generic",29,"green",70,"True","trufts"
"661",22,16749,"truth_conditions","danger/distinct","shells","generic",0,"orange",30,"True","luzaks"
"662",22,7065,"truth_conditions","nondistinctive","feathers","generic",1,"red",90,"True","noobs"
"663",22,9726,"truth_conditions","danger/distinct","ears","generic",2,"pink",10,"False","elleps"
"664",22,7012,"truth_conditions","bare","scales","generic",3,"red",10,"True","blins"
"665",22,5611,"truth_conditions","danger/distinct","feathers","generic",4,"gold",70,"True","plovs"
"666",22,5573,"truth_conditions","bare","spots","generic",5,"copper",50,"True","glippets"
"667",22,7318,"truth_conditions","nondistinctive","shells","generic",6,"purple",30,"True","javs"
"668",22,4169,"truth_conditions","nondistinctive","teeth","generic",7,"blue",90,"True","thups"
"669",22,5921,"truth_conditions","bare","legs","generic",8,"yellow",50,"True","ludinos"
"670",22,3271,"truth_conditions","bare","feathers","generic",9,"purple",30,"True","lorches"
"671",22,3686,"truth_conditions","bare","ears","generic",10,"blue",70,"True","cheebas"
"672",22,3687,"truth_conditions","nondistinctive","spots","generic",11,"gold",30,"True","stups"
"673",22,4141,"truth_conditions","nondistinctive","legs","generic",12,"pink",10,"True","feps"
"674",22,3812,"truth_conditions","danger/distinct","spots","generic",13,"red",90,"True","sapers"
"675",22,3838,"truth_conditions","bare","tails","generic",14,"orange",10,"True","zorbs"
"676",22,4438,"truth_conditions","danger/distinct","tails","generic",15,"purple",70,"True","taifels"
"677",22,5372,"truth_conditions","nondistinctive","scales","generic",16,"yellow",50,"True","dorbs"
"678",22,5281,"truth_conditions","nondistinctive","fur","generic",17,"copper",50,"True","kweps"
"679",22,2583,"truth_conditions","bare","shells","generic",18,"green",70,"True","moxes"
"680",22,2366,"truth_conditions","bare","stripes","generic",19,"gold",90,"True","daiths"
"681",22,14491,"truth_conditions","danger/distinct","stripes","generic",20,"copper",10,"True","mooks"
"682",22,3999,"truth_conditions","danger/distinct","teeth","generic",21,"green",90,"True","zoovs"
"683",22,3388,"truth_conditions","nondistinctive","stripes","generic",22,"silver",70,"True","frams"
"684",22,25420,"truth_conditions","bare","teeth","generic",23,"pink",30,"True","krivels"
"685",22,3061,"truth_conditions","nondistinctive","tails","generic",24,"green",70,"True","trufts"
"686",22,7708,"truth_conditions","danger/distinct","fur","generic",25,"yellow",50,"True","ollers"
"687",22,3278,"truth_conditions","danger/distinct","scales","generic",26,"blue",50,"True","reesles"
"688",22,3803,"truth_conditions","bare","fur","generic",27,"silver",90,"True","morseths"
"689",22,4651,"truth_conditions","nondistinctive","ears","generic",28,"orange",10,"True","kazzes"
"690",22,8821,"truth_conditions","danger/distinct","legs","generic",29,"silver",30,"True","ackles"
"691",23,6508,"truth_conditions","bare","stripes","generic",0,"gold",90,"True","daiths"
"692",23,4969,"truth_conditions","bare","tails","generic",1,"orange",70,"True","zorbs"
"693",23,2666,"truth_conditions","bare","shells","generic",2,"green",50,"False","moxes"
"694",23,5092,"truth_conditions","danger/distinct","feathers","generic",3,"gold",90,"True","plovs"
"695",23,3971,"truth_conditions","nondistinctive","shells","generic",4,"purple",50,"False","javs"
"696",23,2766,"truth_conditions","bare","teeth","generic",5,"pink",30,"False","krivels"
"697",23,4512,"truth_conditions","danger/distinct","shells","generic",6,"orange",30,"False","luzaks"
"698",23,3153,"truth_conditions","danger/distinct","spots","generic",7,"red",70,"True","sapers"
"699",23,4016,"truth_conditions","nondistinctive","scales","generic",8,"yellow",50,"False","dorbs"
"700",23,2109,"truth_conditions","danger/distinct","fur","generic",9,"yellow",50,"False","ollers"
"701",23,1189,"truth_conditions","nondistinctive","fur","generic",10,"copper",30,"False","kweps"
"702",23,1805,"truth_conditions","nondistinctive","teeth","generic",11,"blue",70,"True","thups"
"703",23,1355,"truth_conditions","bare","legs","generic",12,"yellow",90,"True","ludinos"
"704",23,1275,"truth_conditions","danger/distinct","ears","generic",13,"pink",90,"True","elleps"
"705",23,2751,"truth_conditions","nondistinctive","ears","generic",14,"orange",10,"False","kazzes"
"706",23,2007,"truth_conditions","nondistinctive","stripes","generic",15,"silver",70,"True","frams"
"707",23,1572,"truth_conditions","danger/distinct","teeth","generic",16,"green",30,"False","zoovs"
"708",23,32959,"truth_conditions","nondistinctive","legs","generic",17,"pink",90,"True","feps"
"709",23,1649,"truth_conditions","bare","fur","generic",18,"silver",10,"False","morseths"
"710",23,1143,"truth_conditions","bare","ears","generic",19,"blue",10,"False","cheebas"
"711",23,1208,"truth_conditions","bare","scales","generic",20,"red",70,"True","blins"
"712",23,1700,"truth_conditions","danger/distinct","legs","generic",21,"silver",70,"True","ackles"
"713",23,1367,"truth_conditions","nondistinctive","tails","generic",22,"green",90,"True","trufts"
"714",23,1653,"truth_conditions","bare","feathers","generic",23,"purple",50,"False","lorches"
"715",23,1372,"truth_conditions","nondistinctive","feathers","generic",24,"red",10,"False","noobs"
"716",23,1377,"truth_conditions","nondistinctive","spots","generic",25,"gold",30,"False","stups"
"717",23,1190,"truth_conditions","danger/distinct","scales","generic",26,"blue",10,"False","reesles"
"718",23,1269,"truth_conditions","danger/distinct","stripes","generic",27,"copper",50,"False","mooks"
"719",23,1166,"truth_conditions","danger/distinct","tails","generic",28,"purple",10,"False","taifels"
"720",23,1235,"truth_conditions","bare","spots","generic",29,"copper",30,"False","glippets"
"721",24,5597,"truth_conditions","bare","tails","generic",0,"orange",70,"False","zorbs"
"722",24,4367,"truth_conditions","danger/distinct","feathers","generic",1,"gold",70,"True","plovs"
"723",24,4067,"truth_conditions","nondistinctive","tails","generic",2,"green",10,"False","trufts"
"724",24,4018,"truth_conditions","nondistinctive","teeth","generic",3,"blue",70,"True","thups"
"725",24,2763,"truth_conditions","nondistinctive","fur","generic",4,"copper",50,"False","kweps"
"726",24,3989,"truth_conditions","bare","spots","generic",5,"copper",90,"False","glippets"
"727",24,9078,"truth_conditions","bare","shells","generic",6,"green",70,"False","moxes"
"728",24,4072,"truth_conditions","danger/distinct","teeth","generic",7,"green",10,"True","zoovs"
"729",24,3924,"truth_conditions","bare","legs","generic",8,"yellow",30,"False","ludinos"
"730",24,4099,"truth_conditions","danger/distinct","ears","generic",9,"pink",70,"True","elleps"
"731",24,2896,"truth_conditions","bare","feathers","generic",10,"purple",90,"True","lorches"
"732",24,2488,"truth_conditions","danger/distinct","shells","generic",11,"orange",50,"True","luzaks"
"733",24,2459,"truth_conditions","bare","stripes","generic",12,"gold",50,"False","daiths"
"734",24,5253,"truth_conditions","bare","scales","generic",13,"red",10,"False","blins"
"735",24,3276,"truth_conditions","bare","fur","generic",14,"silver",50,"False","morseths"
"736",24,2497,"truth_conditions","danger/distinct","stripes","generic",15,"copper",90,"True","mooks"
"737",24,3325,"truth_conditions","bare","ears","generic",16,"blue",30,"False","cheebas"
"738",24,3410,"truth_conditions","nondistinctive","shells","generic",17,"purple",10,"False","javs"
"739",24,2231,"truth_conditions","nondistinctive","spots","generic",18,"gold",30,"False","stups"
"740",24,3277,"truth_conditions","nondistinctive","ears","generic",19,"orange",70,"False","kazzes"
"741",24,2363,"truth_conditions","danger/distinct","legs","generic",20,"silver",30,"True","ackles"
"742",24,3234,"truth_conditions","danger/distinct","scales","generic",21,"blue",90,"True","reesles"
"743",24,3650,"truth_conditions","nondistinctive","stripes","generic",22,"silver",50,"False","frams"
"744",24,5197,"truth_conditions","danger/distinct","spots","generic",23,"red",10,"True","sapers"
"745",24,3278,"truth_conditions","danger/distinct","fur","generic",24,"yellow",30,"True","ollers"
"746",24,2107,"truth_conditions","bare","teeth","generic",25,"pink",10,"False","krivels"
"747",24,3020,"truth_conditions","nondistinctive","scales","generic",26,"yellow",90,"False","dorbs"
"748",24,4114,"truth_conditions","nondistinctive","legs","generic",27,"pink",90,"False","feps"
"749",24,2809,"truth_conditions","nondistinctive","feathers","generic",28,"red",30,"False","noobs"
"750",24,2786,"truth_conditions","danger/distinct","tails","generic",29,"purple",50,"True","taifels"
"751",25,11198,"truth_conditions","nondistinctive","legs","generic",0,"pink",90,"True","feps"
"752",25,4383,"truth_conditions","bare","teeth","generic",1,"pink",50,"True","krivels"
"753",25,5910,"truth_conditions","nondistinctive","ears","generic",2,"orange",70,"True","kazzes"
"754",25,4039,"truth_conditions","bare","tails","generic",3,"orange",70,"True","zorbs"
"755",25,7909,"truth_conditions","danger/distinct","spots","generic",4,"red",10,"True","sapers"
"756",25,7030,"truth_conditions","nondistinctive","spots","generic",5,"gold",30,"True","stups"
"757",25,6214,"truth_conditions","danger/distinct","stripes","generic",6,"copper",90,"True","mooks"
"758",25,3833,"truth_conditions","danger/distinct","tails","generic",7,"purple",50,"True","taifels"
"759",25,4701,"truth_conditions","bare","legs","generic",8,"yellow",50,"True","ludinos"
"760",25,4007,"truth_conditions","bare","scales","generic",9,"red",90,"True","blins"
"761",25,2727,"truth_conditions","bare","feathers","generic",10,"purple",10,"True","lorches"
"762",25,4296,"truth_conditions","nondistinctive","fur","generic",11,"copper",50,"True","kweps"
"763",25,4319,"truth_conditions","nondistinctive","teeth","generic",12,"blue",90,"True","thups"
"764",25,2928,"truth_conditions","bare","spots","generic",13,"copper",90,"True","glippets"
"765",25,3893,"truth_conditions","bare","shells","generic",14,"green",70,"True","moxes"
"766",25,4217,"truth_conditions","danger/distinct","legs","generic",15,"silver",50,"True","ackles"
"767",25,3325,"truth_conditions","bare","ears","generic",16,"blue",10,"True","cheebas"
"768",25,5031,"truth_conditions","danger/distinct","scales","generic",17,"blue",10,"True","reesles"
"769",25,3623,"truth_conditions","nondistinctive","scales","generic",18,"yellow",10,"True","dorbs"
"770",25,3671,"truth_conditions","danger/distinct","shells","generic",19,"orange",70,"True","luzaks"
"771",25,4455,"truth_conditions","danger/distinct","feathers","generic",20,"gold",30,"True","plovs"
"772",25,5217,"truth_conditions","nondistinctive","tails","generic",21,"green",10,"True","trufts"
"773",25,3354,"truth_conditions","danger/distinct","teeth","generic",22,"green",30,"True","zoovs"
"774",25,3699,"truth_conditions","nondistinctive","stripes","generic",23,"silver",70,"True","frams"
"775",25,3437,"truth_conditions","danger/distinct","ears","generic",24,"pink",90,"True","elleps"
"776",25,2952,"truth_conditions","bare","fur","generic",25,"silver",30,"True","morseths"
"777",25,2830,"truth_conditions","bare","stripes","generic",26,"gold",30,"True","daiths"
"778",25,5480,"truth_conditions","nondistinctive","feathers","generic",27,"red",30,"True","noobs"
"779",25,2983,"truth_conditions","nondistinctive","shells","generic",28,"purple",50,"True","javs"
"780",25,3256,"truth_conditions","danger/distinct","fur","generic",29,"yellow",70,"True","ollers"
"781",26,10854,"truth_conditions","bare","feathers","generic",0,"purple",30,"False","lorches"
"782",26,3909,"truth_conditions","bare","spots","generic",1,"copper",10,"False","glippets"
"783",26,8992,"truth_conditions","nondistinctive","ears","generic",2,"orange",30,"False","kazzes"
"784",26,9840,"truth_conditions","danger/distinct","scales","generic",3,"blue",70,"False","reesles"
"785",26,8563,"truth_conditions","nondistinctive","spots","generic",4,"gold",90,"False","stups"
"786",26,4783,"truth_conditions","bare","fur","generic",5,"silver",50,"False","morseths"
"787",26,9489,"truth_conditions","danger/distinct","teeth","generic",6,"green",70,"False","zoovs"
"788",26,7235,"truth_conditions","nondistinctive","feathers","generic",7,"red",30,"False","noobs"
"789",26,5017,"truth_conditions","bare","legs","generic",8,"yellow",90,"False","ludinos"
"790",26,12256,"truth_conditions","danger/distinct","fur","generic",9,"yellow",10,"False","ollers"
"791",26,2680,"truth_conditions","bare","shells","generic",10,"green",70,"False","moxes"
"792",26,11387,"truth_conditions","danger/distinct","ears","generic",11,"pink",10,"False","elleps"
"793",26,6546,"truth_conditions","nondistinctive","teeth","generic",12,"blue",50,"False","thups"
"794",26,11630,"truth_conditions","danger/distinct","spots","generic",13,"red",90,"False","sapers"
"795",26,6205,"truth_conditions","nondistinctive","stripes","generic",14,"silver",10,"False","frams"
"796",26,3344,"truth_conditions","bare","stripes","generic",15,"gold",90,"False","daiths"
"797",26,12045,"truth_conditions","danger/distinct","stripes","generic",16,"copper",90,"False","mooks"
"798",26,7964,"truth_conditions","danger/distinct","feathers","generic",17,"gold",50,"False","plovs"
"799",26,7549,"truth_conditions","danger/distinct","shells","generic",18,"orange",30,"False","luzaks"
"800",26,5588,"truth_conditions","nondistinctive","tails","generic",19,"green",70,"False","trufts"
"801",26,3697,"truth_conditions","bare","tails","generic",20,"orange",10,"False","zorbs"
"802",26,6602,"truth_conditions","danger/distinct","tails","generic",21,"purple",30,"False","taifels"
"803",26,2760,"truth_conditions","bare","teeth","generic",22,"pink",70,"False","krivels"
"804",26,6370,"truth_conditions","nondistinctive","legs","generic",23,"pink",50,"False","feps"
"805",26,4543,"truth_conditions","bare","ears","generic",24,"blue",50,"False","cheebas"
"806",26,7176,"truth_conditions","nondistinctive","fur","generic",25,"copper",10,"False","kweps"
"807",26,1954,"truth_conditions","bare","scales","generic",26,"red",30,"False","blins"
"808",26,4906,"truth_conditions","nondistinctive","scales","generic",27,"yellow",90,"False","dorbs"
"809",26,5311,"truth_conditions","danger/distinct","legs","generic",28,"silver",50,"False","ackles"
"810",26,2825,"truth_conditions","nondistinctive","shells","generic",29,"purple",70,"False","javs"
"811",27,18034,"truth_conditions","bare","stripes","generic",0,"gold",30,"True","daiths"
"812",27,17210,"truth_conditions","nondistinctive","stripes","generic",1,"silver",90,"True","frams"
"813",27,9919,"truth_conditions","danger/distinct","tails","generic",2,"purple",70,"True","taifels"
"814",27,12808,"truth_conditions","danger/distinct","scales","generic",3,"blue",10,"True","reesles"
"815",27,21591,"truth_conditions","nondistinctive","legs","generic",4,"pink",10,"True","feps"
"816",27,7917,"truth_conditions","danger/distinct","teeth","generic",5,"green",50,"True","zoovs"
"817",27,6986,"truth_conditions","bare","legs","generic",6,"yellow",10,"True","ludinos"
"818",27,15305,"truth_conditions","nondistinctive","teeth","generic",7,"blue",50,"True","thups"
"819",27,6370,"truth_conditions","bare","scales","generic",8,"red",90,"True","blins"
"820",27,7319,"truth_conditions","nondistinctive","tails","generic",9,"green",70,"True","trufts"
"821",27,9347,"truth_conditions","nondistinctive","scales","generic",10,"yellow",90,"True","dorbs"
"822",27,6030,"truth_conditions","bare","tails","generic",11,"orange",70,"True","zorbs"
"823",27,15636,"truth_conditions","nondistinctive","feathers","generic",12,"red",30,"True","noobs"
"824",27,18349,"truth_conditions","nondistinctive","fur","generic",13,"copper",70,"True","kweps"
"825",27,226138,"truth_conditions","danger/distinct","stripes","generic",14,"copper",50,"True","mooks"
"826",27,6760,"truth_conditions","bare","teeth","generic",15,"pink",50,"True","krivels"
"827",27,10587,"truth_conditions","bare","ears","generic",16,"blue",90,"True","cheebas"
"828",27,8282,"truth_conditions","danger/distinct","legs","generic",17,"silver",30,"True","ackles"
"829",27,6101,"truth_conditions","bare","shells","generic",18,"green",10,"True","moxes"
"830",27,10651,"truth_conditions","nondistinctive","shells","generic",19,"purple",30,"True","javs"
"831",27,16930,"truth_conditions","danger/distinct","ears","generic",20,"pink",70,"True","elleps"
"832",27,22567,"truth_conditions","danger/distinct","shells","generic",21,"orange",90,"True","luzaks"
"833",27,10517,"truth_conditions","danger/distinct","spots","generic",22,"red",90,"True","sapers"
"834",27,6483,"truth_conditions","bare","fur","generic",23,"silver",30,"True","morseths"
"835",27,6167,"truth_conditions","bare","spots","generic",24,"copper",70,"True","glippets"
"836",27,15190,"truth_conditions","danger/distinct","fur","generic",25,"yellow",30,"True","ollers"
"837",27,7892,"truth_conditions","nondistinctive","ears","generic",26,"orange",50,"True","kazzes"
"838",27,7805,"truth_conditions","danger/distinct","feathers","generic",27,"gold",10,"True","plovs"
"839",27,13219,"truth_conditions","nondistinctive","spots","generic",28,"gold",10,"True","stups"
"840",27,6610,"truth_conditions","bare","feathers","generic",29,"purple",50,"True","lorches"
"841",28,8244,"truth_conditions","nondistinctive","feathers","generic",0,"red",10,"True","noobs"
"842",28,13246,"truth_conditions","danger/distinct","stripes","generic",1,"copper",30,"True","mooks"
"843",28,7244,"truth_conditions","nondistinctive","tails","generic",2,"green",70,"True","trufts"
"844",28,4222,"truth_conditions","bare","scales","generic",3,"red",90,"True","blins"
"845",28,4160,"truth_conditions","bare","fur","generic",4,"silver",50,"True","morseths"
"846",28,7601,"truth_conditions","nondistinctive","shells","generic",5,"purple",90,"True","javs"
"847",28,9747,"truth_conditions","nondistinctive","legs","generic",6,"pink",30,"True","feps"
"848",28,3031,"truth_conditions","bare","legs","generic",7,"yellow",90,"True","ludinos"
"849",28,6545,"truth_conditions","danger/distinct","spots","generic",8,"red",50,"True","sapers"
"850",28,4225,"truth_conditions","nondistinctive","spots","generic",9,"gold",50,"True","stups"
"851",28,4407,"truth_conditions","danger/distinct","shells","generic",10,"orange",50,"True","luzaks"
"852",28,10676,"truth_conditions","nondistinctive","scales","generic",11,"yellow",10,"False","dorbs"
"853",28,3478,"truth_conditions","danger/distinct","teeth","generic",12,"green",70,"True","zoovs"
"854",28,3034,"truth_conditions","bare","shells","generic",13,"green",10,"False","moxes"
"855",28,2895,"truth_conditions","danger/distinct","fur","generic",14,"yellow",10,"False","ollers"
"856",28,4762,"truth_conditions","bare","spots","generic",15,"copper",30,"True","glippets"
"857",28,3447,"truth_conditions","danger/distinct","legs","generic",16,"silver",90,"True","ackles"
"858",28,5170,"truth_conditions","danger/distinct","scales","generic",17,"blue",90,"True","reesles"
"859",28,2112,"truth_conditions","nondistinctive","ears","generic",18,"orange",90,"True","kazzes"
"860",28,2159,"truth_conditions","bare","stripes","generic",19,"gold",30,"True","daiths"
"861",28,2615,"truth_conditions","bare","teeth","generic",20,"pink",50,"True","krivels"
"862",28,2199,"truth_conditions","bare","tails","generic",21,"orange",70,"True","zorbs"
"863",28,1833,"truth_conditions","bare","feathers","generic",22,"purple",10,"False","lorches"
"864",28,1963,"truth_conditions","nondistinctive","fur","generic",23,"copper",50,"True","kweps"
"865",28,2564,"truth_conditions","danger/distinct","tails","generic",24,"purple",30,"True","taifels"
"866",28,2673,"truth_conditions","danger/distinct","ears","generic",25,"pink",70,"True","elleps"
"867",28,2281,"truth_conditions","nondistinctive","teeth","generic",26,"blue",70,"True","thups"
"868",28,2154,"truth_conditions","danger/distinct","feathers","generic",27,"gold",10,"False","plovs"
"869",28,1920,"truth_conditions","bare","ears","generic",28,"blue",70,"True","cheebas"
"870",28,3109,"truth_conditions","nondistinctive","stripes","generic",29,"silver",30,"True","frams"
"871",29,6549,"truth_conditions","bare","scales","generic",0,"red",90,"True","blins"
"872",29,161203,"truth_conditions","nondistinctive","teeth","generic",1,"blue",90,"True","thups"
"873",29,4809,"truth_conditions","nondistinctive","fur","generic",2,"copper",10,"True","kweps"
"874",29,3367,"truth_conditions","bare","fur","generic",3,"silver",10,"True","morseths"
"875",29,1719,"truth_conditions","bare","teeth","generic",4,"pink",10,"True","krivels"
"876",29,2024,"truth_conditions","danger/distinct","teeth","generic",5,"green",50,"True","zoovs"
"877",29,3527,"truth_conditions","nondistinctive","feathers","generic",6,"red",30,"True","noobs"
"878",29,2527,"truth_conditions","bare","shells","generic",7,"green",50,"True","moxes"
"879",29,3152,"truth_conditions","nondistinctive","scales","generic",8,"yellow",70,"True","dorbs"
"880",29,4568,"truth_conditions","danger/distinct","ears","generic",9,"pink",90,"True","elleps"
"881",29,3024,"truth_conditions","danger/distinct","shells","generic",10,"orange",70,"True","luzaks"
"882",29,2880,"truth_conditions","danger/distinct","spots","generic",11,"red",70,"True","sapers"
"883",29,2375,"truth_conditions","bare","stripes","generic",12,"gold",30,"True","daiths"
"884",29,2727,"truth_conditions","bare","tails","generic",13,"orange",70,"True","zorbs"
"885",29,1577,"truth_conditions","nondistinctive","ears","generic",14,"orange",30,"True","kazzes"
"886",29,1775,"truth_conditions","bare","ears","generic",15,"blue",70,"True","cheebas"
"887",29,2676,"truth_conditions","danger/distinct","tails","generic",16,"purple",90,"True","taifels"
"888",29,2008,"truth_conditions","bare","legs","generic",17,"yellow",50,"True","ludinos"
"889",29,2296,"truth_conditions","nondistinctive","shells","generic",18,"purple",50,"True","javs"
"890",29,2343,"truth_conditions","danger/distinct","stripes","generic",19,"copper",30,"True","mooks"
"891",29,1991,"truth_conditions","bare","feathers","generic",20,"purple",90,"True","lorches"
"892",29,4208,"truth_conditions","danger/distinct","scales","generic",21,"blue",30,"True","reesles"
"893",29,1984,"truth_conditions","bare","spots","generic",22,"copper",30,"True","glippets"
"894",29,3839,"truth_conditions","danger/distinct","legs","generic",23,"silver",10,"True","ackles"
"895",29,1584,"truth_conditions","nondistinctive","legs","generic",24,"pink",50,"True","feps"
"896",29,2160,"truth_conditions","nondistinctive","spots","generic",25,"gold",90,"True","stups"
"897",29,2039,"truth_conditions","danger/distinct","feathers","generic",26,"gold",50,"True","plovs"
"898",29,4271,"truth_conditions","danger/distinct","fur","generic",27,"yellow",10,"True","ollers"
"899",29,2241,"truth_conditions","nondistinctive","tails","generic",28,"green",10,"True","trufts"
"900",29,1312,"truth_conditions","nondistinctive","stripes","generic",29,"silver",70,"True","frams"
"901",30,8834,"truth_conditions","nondistinctive","stripes","generic",0,"silver",90,"True","frams"
"902",30,9525,"truth_conditions","nondistinctive","shells","generic",1,"purple",10,"False","javs"
"903",30,6278,"truth_conditions","bare","spots","generic",2,"copper",10,"False","glippets"
"904",30,6047,"truth_conditions","danger/distinct","teeth","generic",3,"green",50,"True","zoovs"
"905",30,5000,"truth_conditions","nondistinctive","spots","generic",4,"gold",90,"True","stups"
"906",30,3021,"truth_conditions","danger/distinct","shells","generic",5,"orange",30,"True","luzaks"
"907",30,2873,"truth_conditions","nondistinctive","teeth","generic",6,"blue",30,"True","thups"
"908",30,1807,"truth_conditions","bare","legs","generic",7,"yellow",90,"True","ludinos"
"909",30,2552,"truth_conditions","danger/distinct","fur","generic",8,"yellow",70,"True","ollers"
"910",30,3074,"truth_conditions","nondistinctive","feathers","generic",9,"red",10,"True","noobs"
"911",30,1645,"truth_conditions","nondistinctive","legs","generic",10,"pink",30,"True","feps"
"912",30,3809,"truth_conditions","danger/distinct","legs","generic",11,"silver",30,"True","ackles"
"913",30,2117,"truth_conditions","nondistinctive","ears","generic",12,"orange",70,"True","kazzes"
"914",30,1935,"truth_conditions","bare","feathers","generic",13,"purple",90,"True","lorches"
"915",30,2848,"truth_conditions","bare","teeth","generic",14,"pink",30,"True","krivels"
"916",30,1648,"truth_conditions","bare","ears","generic",15,"blue",50,"True","cheebas"
"917",30,2406,"truth_conditions","nondistinctive","scales","generic",16,"yellow",50,"True","dorbs"
"918",30,1848,"truth_conditions","bare","fur","generic",17,"silver",70,"True","morseths"
"919",30,2391,"truth_conditions","bare","scales","generic",18,"red",30,"True","blins"
"920",30,6178,"truth_conditions","danger/distinct","spots","generic",19,"red",70,"True","sapers"
"921",30,4228,"truth_conditions","danger/distinct","feathers","generic",20,"gold",90,"True","plovs"
"922",30,2144,"truth_conditions","bare","stripes","generic",21,"gold",50,"True","daiths"
"923",30,3961,"truth_conditions","danger/distinct","stripes","generic",22,"copper",10,"True","mooks"
"924",30,2518,"truth_conditions","nondistinctive","tails","generic",23,"green",50,"True","trufts"
"925",30,3519,"truth_conditions","danger/distinct","scales","generic",24,"blue",50,"True","reesles"
"926",30,2311,"truth_conditions","danger/distinct","ears","generic",25,"pink",10,"True","elleps"
"927",30,2826,"truth_conditions","bare","shells","generic",26,"green",70,"True","moxes"
"928",30,2246,"truth_conditions","bare","tails","generic",27,"orange",10,"True","zorbs"
"929",30,2615,"truth_conditions","nondistinctive","fur","generic",28,"copper",70,"True","kweps"
"930",30,2032,"truth_conditions","danger/distinct","tails","generic",29,"purple",90,"True","taifels"
"931",31,9756,"truth_conditions","danger/distinct","shells","generic",0,"orange",70,"False","luzaks"
"932",31,4411,"truth_conditions","bare","stripes","generic",1,"gold",50,"True","daiths"
"933",31,2995,"truth_conditions","nondistinctive","feathers","generic",2,"red",30,"True","noobs"
"934",31,4503,"truth_conditions","bare","feathers","generic",3,"purple",30,"True","lorches"
"935",31,5272,"truth_conditions","nondistinctive","fur","generic",4,"copper",70,"True","kweps"
"936",31,3605,"truth_conditions","danger/distinct","feathers","generic",5,"gold",50,"True","plovs"
"937",31,1460,"truth_conditions","danger/distinct","stripes","generic",6,"copper",30,"True","mooks"
"938",31,6493,"truth_conditions","nondistinctive","stripes","generic",7,"silver",70,"True","frams"
"939",31,4824,"truth_conditions","danger/distinct","scales","generic",8,"blue",70,"True","reesles"
"940",31,2192,"truth_conditions","bare","spots","generic",9,"copper",50,"True","glippets"
"941",31,3791,"truth_conditions","nondistinctive","spots","generic",10,"gold",10,"False","stups"
"942",31,3782,"truth_conditions","bare","teeth","generic",11,"pink",30,"False","krivels"
"943",31,3278,"truth_conditions","nondistinctive","scales","generic",12,"yellow",10,"False","dorbs"
"944",31,2273,"truth_conditions","danger/distinct","teeth","generic",13,"green",90,"True","zoovs"
"945",31,2129,"truth_conditions","nondistinctive","ears","generic",14,"orange",90,"True","kazzes"
"946",31,2776,"truth_conditions","bare","fur","generic",15,"silver",10,"False","morseths"
"947",31,1935,"truth_conditions","bare","shells","generic",16,"green",10,"False","moxes"
"948",31,2576,"truth_conditions","danger/distinct","fur","generic",17,"yellow",10,"False","ollers"
"949",31,1624,"truth_conditions","nondistinctive","shells","generic",18,"purple",90,"True","javs"
"950",31,1807,"truth_conditions","nondistinctive","tails","generic",19,"green",50,"True","trufts"
"951",31,3806,"truth_conditions","danger/distinct","spots","generic",20,"red",10,"False","sapers"
"952",31,1617,"truth_conditions","nondistinctive","teeth","generic",21,"blue",50,"True","thups"
"953",31,2199,"truth_conditions","bare","tails","generic",22,"orange",70,"True","zorbs"
"954",31,2022,"truth_conditions","bare","ears","generic",23,"blue",90,"True","cheebas"
"955",31,2111,"truth_conditions","nondistinctive","legs","generic",24,"pink",30,"False","feps"
"956",31,2326,"truth_conditions","danger/distinct","ears","generic",25,"pink",30,"False","elleps"
"957",31,1415,"truth_conditions","bare","scales","generic",26,"red",90,"True","blins"
"958",31,1136,"truth_conditions","bare","legs","generic",27,"yellow",70,"True","ludinos"
"959",31,2266,"truth_conditions","danger/distinct","tails","generic",28,"purple",50,"True","taifels"
"960",31,1209,"truth_conditions","danger/distinct","legs","generic",29,"silver",90,"True","ackles"
"961",32,79214,"truth_conditions","bare","stripes","generic",0,"gold",70,"True","daiths"
"962",32,18631,"truth_conditions","danger/distinct","ears","generic",1,"pink",30,"True","elleps"
"963",32,13929,"truth_conditions","bare","legs","generic",2,"yellow",50,"False","ludinos"
"964",32,8487,"truth_conditions","bare","scales","generic",3,"red",10,"True","blins"
"965",32,12447,"truth_conditions","nondistinctive","tails","generic",4,"green",50,"True","trufts"
"966",32,4875,"truth_conditions","bare","shells","generic",5,"green",90,"True","moxes"
"967",32,5240,"truth_conditions","nondistinctive","scales","generic",6,"yellow",90,"True","dorbs"
"968",32,4714,"truth_conditions","bare","tails","generic",7,"orange",10,"True","zorbs"
"969",32,8700,"truth_conditions","nondistinctive","fur","generic",8,"copper",90,"True","kweps"
"970",32,4259,"truth_conditions","bare","teeth","generic",9,"pink",30,"True","krivels"
"971",32,4698,"truth_conditions","nondistinctive","teeth","generic",10,"blue",30,"True","thups"
"972",32,4898,"truth_conditions","danger/distinct","spots","generic",11,"red",90,"True","sapers"
"973",32,5005,"truth_conditions","nondistinctive","stripes","generic",12,"silver",70,"True","frams"
"974",32,12063,"truth_conditions","nondistinctive","legs","generic",13,"pink",10,"True","feps"
"975",32,3815,"truth_conditions","danger/distinct","legs","generic",14,"silver",70,"True","ackles"
"976",32,4024,"truth_conditions","bare","spots","generic",15,"copper",30,"True","glippets"
"977",32,5001,"truth_conditions","danger/distinct","fur","generic",16,"yellow",90,"True","ollers"
"978",32,4090,"truth_conditions","bare","ears","generic",17,"blue",90,"True","cheebas"
"979",32,4790,"truth_conditions","nondistinctive","feathers","generic",18,"red",10,"True","noobs"
"980",32,3768,"truth_conditions","nondistinctive","shells","generic",19,"purple",50,"True","javs"
"981",32,4286,"truth_conditions","bare","feathers","generic",20,"purple",50,"True","lorches"
"982",32,3229,"truth_conditions","bare","fur","generic",21,"silver",70,"True","morseths"
"983",32,5438,"truth_conditions","danger/distinct","teeth","generic",22,"green",10,"True","zoovs"
"984",32,2963,"truth_conditions","danger/distinct","scales","generic",23,"blue",70,"True","reesles"
"985",32,2804,"truth_conditions","danger/distinct","feathers","generic",24,"gold",50,"True","plovs"
"986",32,3716,"truth_conditions","nondistinctive","ears","generic",25,"orange",30,"True","kazzes"
"987",32,2945,"truth_conditions","danger/distinct","shells","generic",26,"orange",10,"True","luzaks"
"988",32,3405,"truth_conditions","danger/distinct","stripes","generic",27,"copper",30,"True","mooks"
"989",32,3205,"truth_conditions","nondistinctive","spots","generic",28,"gold",70,"True","stups"
"990",32,4706,"truth_conditions","danger/distinct","tails","generic",29,"purple",50,"True","taifels"
"991",33,3323,"truth_conditions","bare","tails","generic",0,"orange",50,"True","zorbs"
"992",33,2751,"truth_conditions","bare","spots","generic",1,"copper",10,"True","glippets"
"993",33,6331,"truth_conditions","danger/distinct","fur","generic",2,"yellow",70,"True","ollers"
"994",33,3697,"truth_conditions","danger/distinct","stripes","generic",3,"copper",50,"True","mooks"
"995",33,3670,"truth_conditions","nondistinctive","scales","generic",4,"yellow",90,"True","dorbs"
"996",33,3607,"truth_conditions","danger/distinct","scales","generic",5,"blue",90,"True","reesles"
"997",33,2568,"truth_conditions","bare","stripes","generic",6,"gold",70,"True","daiths"
"998",33,3617,"truth_conditions","nondistinctive","stripes","generic",7,"silver",10,"True","frams"
"999",33,2990,"truth_conditions","danger/distinct","shells","generic",8,"orange",30,"True","luzaks"
"1000",33,2848,"truth_conditions","danger/distinct","feathers","generic",9,"gold",70,"True","plovs"
"1001",33,2711,"truth_conditions","nondistinctive","tails","generic",10,"green",50,"True","trufts"
"1002",33,1936,"truth_conditions","bare","legs","generic",11,"yellow",30,"True","ludinos"
"1003",33,3792,"truth_conditions","nondistinctive","ears","generic",12,"orange",30,"True","kazzes"
"1004",33,1965,"truth_conditions","bare","fur","generic",13,"silver",50,"True","morseths"
"1005",33,3480,"truth_conditions","danger/distinct","spots","generic",14,"red",10,"True","sapers"
"1006",33,1592,"truth_conditions","bare","scales","generic",15,"red",90,"True","blins"
"1007",33,2264,"truth_conditions","danger/distinct","teeth","generic",16,"green",10,"True","zoovs"
"1008",33,1623,"truth_conditions","bare","teeth","generic",17,"pink",10,"True","krivels"
"1009",33,2440,"truth_conditions","nondistinctive","teeth","generic",18,"blue",50,"True","thups"
"1010",33,1797,"truth_conditions","nondistinctive","legs","generic",19,"pink",70,"True","feps"
"1011",33,2147,"truth_conditions","bare","ears","generic",20,"blue",70,"True","cheebas"
"1012",33,2790,"truth_conditions","nondistinctive","spots","generic",21,"gold",70,"True","stups"
"1013",33,2726,"truth_conditions","danger/distinct","tails","generic",22,"purple",30,"True","taifels"
"1014",33,2535,"truth_conditions","danger/distinct","legs","generic",23,"silver",90,"True","ackles"
"1015",33,2864,"truth_conditions","nondistinctive","feathers","generic",24,"red",30,"True","noobs"
"1016",33,2408,"truth_conditions","bare","shells","generic",25,"green",90,"True","moxes"
"1017",33,3144,"truth_conditions","nondistinctive","shells","generic",26,"purple",90,"True","javs"
"1018",33,2343,"truth_conditions","danger/distinct","ears","generic",27,"pink",50,"True","elleps"
"1019",33,1560,"truth_conditions","bare","feathers","generic",28,"purple",30,"True","lorches"
"1020",33,2792,"truth_conditions","nondistinctive","fur","generic",29,"copper",10,"True","kweps"
"1021",34,11118,"truth_conditions","nondistinctive","fur","generic",0,"copper",50,"False","kweps"
"1022",34,7980,"truth_conditions","nondistinctive","ears","generic",1,"orange",10,"False","kazzes"
"1023",34,8033,"truth_conditions","nondistinctive","teeth","generic",2,"blue",70,"False","thups"
"1024",34,7434,"truth_conditions","danger/distinct","legs","generic",3,"silver",90,"True","ackles"
"1025",34,4565,"truth_conditions","danger/distinct","stripes","generic",4,"copper",30,"False","mooks"
"1026",34,5660,"truth_conditions","danger/distinct","feathers","generic",5,"gold",10,"False","plovs"
"1027",34,5701,"truth_conditions","danger/distinct","fur","generic",6,"yellow",30,"False","ollers"
"1028",34,4432,"truth_conditions","nondistinctive","shells","generic",7,"purple",70,"False","javs"
"1029",34,6169,"truth_conditions","bare","legs","generic",8,"yellow",50,"False","ludinos"
"1030",34,3968,"truth_conditions","danger/distinct","ears","generic",9,"pink",70,"True","elleps"
"1031",34,5128,"truth_conditions","bare","fur","generic",10,"silver",30,"False","morseths"
"1032",34,7483,"truth_conditions","danger/distinct","tails","generic",11,"purple",50,"False","taifels"
"1033",34,8565,"truth_conditions","danger/distinct","shells","generic",12,"orange",90,"False","luzaks"
"1034",34,2643,"truth_conditions","nondistinctive","legs","generic",13,"pink",30,"False","feps"
"1035",34,3883,"truth_conditions","bare","spots","generic",14,"copper",90,"False","glippets"
"1036",34,2301,"truth_conditions","nondistinctive","spots","generic",15,"gold",10,"False","stups"
"1037",34,1995,"truth_conditions","bare","feathers","generic",16,"purple",90,"False","lorches"
"1038",34,2874,"truth_conditions","danger/distinct","spots","generic",17,"red",10,"False","sapers"
"1039",34,2183,"truth_conditions","bare","teeth","generic",18,"pink",10,"False","krivels"
"1040",34,1941,"truth_conditions","bare","scales","generic",19,"red",30,"False","blins"
"1041",34,3166,"truth_conditions","nondistinctive","feathers","generic",20,"red",90,"False","noobs"
"1042",34,1577,"truth_conditions","danger/distinct","teeth","generic",21,"green",70,"False","zoovs"
"1043",34,1781,"truth_conditions","nondistinctive","scales","generic",22,"yellow",50,"False","dorbs"
"1044",34,1833,"truth_conditions","bare","shells","generic",23,"green",10,"False","moxes"
"1045",34,1632,"truth_conditions","nondistinctive","tails","generic",24,"green",90,"False","trufts"
"1046",34,1871,"truth_conditions","bare","ears","generic",25,"blue",70,"False","cheebas"
"1047",34,1408,"truth_conditions","bare","stripes","generic",26,"gold",50,"False","daiths"
"1048",34,1741,"truth_conditions","nondistinctive","stripes","generic",27,"silver",30,"False","frams"
"1049",34,2096,"truth_conditions","danger/distinct","scales","generic",28,"blue",50,"False","reesles"
"1050",34,2154,"truth_conditions","bare","tails","generic",29,"orange",70,"False","zorbs"
"1051",35,13548,"truth_conditions","nondistinctive","teeth","generic",0,"blue",30,"False","thups"
"1052",35,30057,"truth_conditions","nondistinctive","shells","generic",1,"purple",90,"True","javs"
"1053",35,6781,"truth_conditions","bare","shells","generic",2,"green",90,"True","moxes"
