workerid	rt	trial_type	stim_type	stim_part	stim_determiner	trialNum	stim_color	stim_prevalence	response	stim_category
0	10637	truth_conditions	nondistinctive	stripes	generic	0	silver	45	True	frams
0	4598	truth_conditions	bare	shells	generic	1	green	45	True	moxes
0	5141	truth_conditions	nondistinctive	scales	generic	2	yellow	5	False	dorbs
0	3567	truth_conditions	nondistinctive	fur	generic	3	copper	5	False	kweps
0	4157	truth_conditions	bare	stripes	generic	4	gold	5	False	daiths
0	6142	truth_conditions	danger/distinct	legs	generic	5	silver	25	True	ackles
0	4522	truth_conditions	bare	tails	generic	6	orange	25	True	zorbs
0	4779	truth_conditions	nondistinctive	ears	generic	7	orange	15	True	kazzes
0	2707	truth_conditions	bare	ears	generic	8	blue	35	True	cheebas
0	2074	truth_conditions	bare	spots	generic	9	copper	25	True	glippets
0	4254	truth_conditions	bare	feathers	generic	10	purple	45	True	lorches
0	4045	truth_conditions	nondistinctive	tails	generic	11	green	45	True	trufts
0	4846	truth_conditions	danger/distinct	scales	generic	12	blue	25	True	reesles
0	4261	truth_conditions	bare	fur	generic	13	silver	5	False	morseths
0	4652	truth_conditions	nondistinctive	teeth	generic	14	blue	15	True	thups
0	4074	truth_conditions	danger/distinct	ears	generic	15	pink	45	True	elleps
0	2896	truth_conditions	nondistinctive	feathers	generic	16	red	25	True	noobs
0	3833	truth_conditions	danger/distinct	fur	generic	17	yellow	5	True	ollers
0	4400	truth_conditions	bare	teeth	generic	18	pink	35	True	krivels
0	2152	truth_conditions	nondistinctive	spots	generic	19	gold	25	True	stups
0	1807	truth_conditions	nondistinctive	legs	generic	20	pink	35	True	feps
0	2785	truth_conditions	bare	scales	generic	21	red	15	True	blins
0	2019	truth_conditions	danger/distinct	teeth	generic	22	green	15	True	zoovs
0	1576	truth_conditions	bare	legs	generic	23	yellow	15	True	ludinos
0	5445	truth_conditions	danger/distinct	spots	generic	24	red	35	True	sapers
0	5407	truth_conditions	danger/distinct	shells	generic	25	orange	15	True	luzaks
0	2074	truth_conditions	nondistinctive	shells	generic	26	purple	35	True	javs
0	6903	truth_conditions	danger/distinct	tails	generic	27	purple	5	True	taifels
0	1416	truth_conditions	danger/distinct	feathers	generic	28	gold	45	True	plovs
0	2597	truth_conditions	danger/distinct	stripes	generic	29	copper	35	True	mooks
1	9103	truth_conditions	bare	fur	generic	0	silver	5	True	morseths
1	3463	truth_conditions	bare	ears	generic	1	blue	5	True	cheebas
1	11794	truth_conditions	nondistinctive	teeth	generic	2	blue	25	True	thups
1	7027	truth_conditions	danger/distinct	tails	generic	3	purple	5	True	taifels
1	4402	truth_conditions	danger/distinct	ears	generic	4	pink	25	True	elleps
1	4474	truth_conditions	nondistinctive	tails	generic	5	green	15	True	trufts
1	2772	truth_conditions	nondistinctive	spots	generic	6	gold	45	True	stups
1	3505	truth_conditions	nondistinctive	shells	generic	7	purple	15	True	javs
1	2932	truth_conditions	bare	tails	generic	8	orange	35	True	zorbs
1	7481	truth_conditions	nondistinctive	feathers	generic	9	red	35	True	noobs
1	2649	truth_conditions	danger/distinct	fur	generic	10	yellow	35	True	ollers
1	3788	truth_conditions	bare	spots	generic	11	copper	25	True	glippets
1	2393	truth_conditions	danger/distinct	feathers	generic	12	gold	5	True	plovs
1	2359	truth_conditions	danger/distinct	shells	generic	13	orange	15	True	luzaks
1	4031	truth_conditions	bare	shells	generic	14	green	45	True	moxes
1	2930	truth_conditions	danger/distinct	teeth	generic	15	green	15	True	zoovs
1	2564	truth_conditions	nondistinctive	fur	generic	16	copper	25	True	kweps
1	2269	truth_conditions	nondistinctive	legs	generic	17	pink	35	True	feps
1	2550	truth_conditions	danger/distinct	scales	generic	18	blue	45	True	reesles
1	3362	truth_conditions	bare	stripes	generic	19	gold	35	True	daiths
1	2968	truth_conditions	danger/distinct	stripes	generic	20	copper	45	True	mooks
1	2637	truth_conditions	bare	scales	generic	21	red	45	True	blins
1	4212	truth_conditions	danger/distinct	spots	generic	22	red	25	True	sapers
1	3660	truth_conditions	bare	legs	generic	23	yellow	25	True	ludinos
1	3714	truth_conditions	bare	feathers	generic	24	purple	15	True	lorches
1	4025	truth_conditions	danger/distinct	legs	generic	25	silver	35	True	ackles
1	1850	truth_conditions	nondistinctive	ears	generic	26	orange	5	True	kazzes
1	1754	truth_conditions	nondistinctive	scales	generic	27	yellow	45	True	dorbs
1	2354	truth_conditions	nondistinctive	stripes	generic	28	silver	5	True	frams
1	2575	truth_conditions	bare	teeth	generic	29	pink	15	True	krivels
2	8987	truth_conditions	bare	stripes	generic	0	gold	25	True	daiths
2	43792	truth_conditions	bare	ears	generic	1	blue	15	False	cheebas
2	13019	truth_conditions	nondistinctive	shells	generic	2	purple	35	False	javs
2	8797	truth_conditions	danger/distinct	shells	generic	3	orange	25	False	luzaks
2	7955	truth_conditions	danger/distinct	tails	generic	4	purple	15	False	taifels
2	4028	truth_conditions	danger/distinct	teeth	generic	5	green	5	False	zoovs
2	4647	truth_conditions	danger/distinct	spots	generic	6	red	15	False	sapers
2	3811	truth_conditions	nondistinctive	feathers	generic	7	red	5	False	noobs
2	11439	truth_conditions	bare	shells	generic	8	green	25	False	moxes
2	4305	truth_conditions	danger/distinct	stripes	generic	9	copper	35	False	mooks
2	8776	truth_conditions	nondistinctive	legs	generic	10	pink	15	False	feps
2	3187	truth_conditions	nondistinctive	ears	generic	11	orange	5	False	kazzes
2	2355	truth_conditions	nondistinctive	scales	generic	12	yellow	25	False	dorbs
2	6129	truth_conditions	bare	scales	generic	13	red	35	False	blins
2	6546	truth_conditions	danger/distinct	scales	generic	14	blue	45	True	reesles
2	2048	truth_conditions	bare	spots	generic	15	copper	5	False	glippets
2	5450	truth_conditions	danger/distinct	legs	generic	16	silver	25	False	ackles
2	2883	truth_conditions	danger/distinct	fur	generic	17	yellow	45	True	ollers
2	2267	truth_conditions	danger/distinct	feathers	generic	18	gold	5	False	plovs
2	2263	truth_conditions	bare	fur	generic	19	silver	45	True	morseths
2	1938	truth_conditions	bare	legs	generic	20	yellow	5	False	ludinos
2	4427	truth_conditions	bare	tails	generic	21	orange	35	False	zorbs
2	2287	truth_conditions	nondistinctive	teeth	generic	22	blue	35	False	thups
2	1698	truth_conditions	nondistinctive	fur	generic	23	copper	25	False	kweps
2	1371	truth_conditions	bare	feathers	generic	24	purple	15	False	lorches
2	2797	truth_conditions	danger/distinct	ears	generic	25	pink	35	False	elleps
2	1770	truth_conditions	nondistinctive	tails	generic	26	green	45	True	trufts
2	2245	truth_conditions	bare	teeth	generic	27	pink	45	True	krivels
2	2622	truth_conditions	nondistinctive	stripes	generic	28	silver	45	True	frams
2	2511	truth_conditions	nondistinctive	spots	generic	29	gold	15	False	stups
3	2729	truth_conditions	bare	fur	generic	0	silver	45	True	morseths
3	1473	truth_conditions	bare	feathers	generic	1	purple	25	True	lorches
3	1722	truth_conditions	nondistinctive	legs	generic	2	pink	5	True	feps
3	1375	truth_conditions	danger/distinct	legs	generic	3	silver	25	True	ackles
3	1436	truth_conditions	nondistinctive	scales	generic	4	yellow	5	True	dorbs
3	3902	truth_conditions	danger/distinct	feathers	generic	5	gold	25	True	plovs
3	2376	truth_conditions	bare	shells	generic	6	green	5	True	moxes
3	2597	truth_conditions	bare	teeth	generic	7	pink	5	True	krivels
3	4492	truth_conditions	nondistinctive	spots	generic	8	gold	45	True	stups
3	4167	truth_conditions	danger/distinct	teeth	generic	9	green	35	True	zoovs
3	5264	truth_conditions	danger/distinct	fur	generic	10	yellow	15	True	ollers
3	5164	truth_conditions	danger/distinct	tails	generic	11	purple	35	True	taifels
3	7505	truth_conditions	nondistinctive	fur	generic	12	copper	45	True	kweps
3	2710	truth_conditions	bare	scales	generic	13	red	25	True	blins
3	2330	truth_conditions	bare	spots	generic	14	copper	35	True	glippets
3	2167	truth_conditions	bare	ears	generic	15	blue	35	True	cheebas
3	3664	truth_conditions	danger/distinct	shells	generic	16	orange	45	True	luzaks
3	4544	truth_conditions	danger/distinct	spots	generic	17	red	5	True	sapers
3	3909	truth_conditions	nondistinctive	feathers	generic	18	red	25	True	noobs
3	2512	truth_conditions	bare	legs	generic	19	yellow	45	True	ludinos
3	4834	truth_conditions	nondistinctive	ears	generic	20	orange	25	True	kazzes
3	2429	truth_conditions	bare	stripes	generic	21	gold	15	True	daiths
3	3554	truth_conditions	nondistinctive	teeth	generic	22	blue	35	True	thups
3	3126	truth_conditions	danger/distinct	scales	generic	23	blue	5	True	reesles
3	2826	truth_conditions	nondistinctive	shells	generic	24	purple	35	True	javs
3	3254	truth_conditions	danger/distinct	ears	generic	25	pink	45	True	elleps
3	3873	truth_conditions	danger/distinct	stripes	generic	26	copper	15	True	mooks
3	5016	truth_conditions	nondistinctive	stripes	generic	27	silver	15	True	frams
3	3836	truth_conditions	bare	tails	generic	28	orange	15	True	zorbs
3	6909	truth_conditions	nondistinctive	tails	generic	29	green	15	True	trufts
4	4692	truth_conditions	danger/distinct	spots	generic	0	red	5	True	sapers
4	5786	truth_conditions	bare	spots	generic	1	copper	15	True	glippets
4	1101	truth_conditions	bare	ears	generic	2	blue	15	True	cheebas
4	774	truth_conditions	bare	tails	generic	3	orange	25	True	zorbs
4	849	truth_conditions	bare	fur	generic	4	silver	5	True	morseths
4	1661	truth_conditions	nondistinctive	feathers	generic	5	red	25	False	noobs
4	1036	truth_conditions	danger/distinct	shells	generic	6	orange	15	True	luzaks
4	3788	truth_conditions	bare	teeth	generic	7	pink	25	True	krivels
4	1231	truth_conditions	danger/distinct	legs	generic	8	silver	35	True	ackles
4	2642	truth_conditions	danger/distinct	feathers	generic	9	gold	35	False	plovs
4	1256	truth_conditions	bare	scales	generic	10	red	45	True	blins
4	2582	truth_conditions	nondistinctive	stripes	generic	11	silver	15	True	frams
4	2560	truth_conditions	nondistinctive	tails	generic	12	green	25	True	trufts
4	2144	truth_conditions	nondistinctive	spots	generic	13	gold	35	True	stups
4	3097	truth_conditions	nondistinctive	shells	generic	14	purple	15	True	javs
4	1234	truth_conditions	bare	stripes	generic	15	gold	35	True	daiths
4	1168	truth_conditions	danger/distinct	fur	generic	16	yellow	25	True	ollers
4	2324	truth_conditions	danger/distinct	ears	generic	17	pink	45	True	elleps
4	1138	truth_conditions	bare	legs	generic	18	yellow	45	True	ludinos
4	1078	truth_conditions	nondistinctive	teeth	generic	19	blue	45	True	thups
4	2788	truth_conditions	bare	feathers	generic	20	purple	5	True	lorches
4	2378	truth_conditions	danger/distinct	tails	generic	21	purple	45	True	taifels
4	1694	truth_conditions	bare	shells	generic	22	green	35	True	moxes
4	1132	truth_conditions	danger/distinct	teeth	generic	23	green	25	True	zoovs
4	932	truth_conditions	nondistinctive	legs	generic	24	pink	5	True	feps
4	1844	truth_conditions	nondistinctive	fur	generic	25	copper	35	True	kweps
4	3462	truth_conditions	danger/distinct	stripes	generic	26	copper	15	True	mooks
4	3089	truth_conditions	nondistinctive	scales	generic	27	yellow	5	False	dorbs
4	2708	truth_conditions	nondistinctive	ears	generic	28	orange	45	True	kazzes
4	3709	truth_conditions	danger/distinct	scales	generic	29	blue	5	True	reesles
5	8757	truth_conditions	bare	fur	generic	0	silver	5	True	morseths
5	21091	truth_conditions	nondistinctive	fur	generic	1	copper	15	True	kweps
5	14784	truth_conditions	danger/distinct	tails	generic	2	purple	25	True	taifels
5	3491	truth_conditions	danger/distinct	fur	generic	3	yellow	45	True	ollers
5	4253	truth_conditions	danger/distinct	feathers	generic	4	gold	45	True	plovs
5	2492	truth_conditions	danger/distinct	teeth	generic	5	green	15	True	zoovs
5	3265	truth_conditions	danger/distinct	stripes	generic	6	copper	35	True	mooks
5	16215	truth_conditions	nondistinctive	spots	generic	7	gold	15	True	stups
5	2370	truth_conditions	nondistinctive	ears	generic	8	orange	35	True	kazzes
5	2197	truth_conditions	bare	shells	generic	9	green	15	True	moxes
5	2899	truth_conditions	nondistinctive	teeth	generic	10	blue	25	True	thups
5	3798	truth_conditions	bare	scales	generic	11	red	45	True	blins
5	1766	truth_conditions	nondistinctive	shells	generic	12	purple	25	True	javs
5	1479	truth_conditions	bare	legs	generic	13	yellow	25	True	ludinos
5	1577	truth_conditions	danger/distinct	ears	generic	14	pink	35	True	elleps
5	3125	truth_conditions	bare	feathers	generic	15	purple	35	True	lorches
5	11343	truth_conditions	nondistinctive	feathers	generic	16	red	5	True	noobs
5	3092	truth_conditions	bare	stripes	generic	17	gold	25	True	daiths
5	1297	truth_conditions	bare	teeth	generic	18	pink	45	True	krivels
5	1756	truth_conditions	nondistinctive	tails	generic	19	green	35	True	trufts
5	1058	truth_conditions	danger/distinct	scales	generic	20	blue	25	True	reesles
5	959	truth_conditions	nondistinctive	scales	generic	21	yellow	45	True	dorbs
5	2840	truth_conditions	bare	spots	generic	22	copper	15	True	glippets
5	1314	truth_conditions	bare	ears	generic	23	blue	35	True	cheebas
5	1264	truth_conditions	bare	tails	generic	24	orange	5	True	zorbs
5	3467	truth_conditions	danger/distinct	spots	generic	25	red	15	True	sapers
5	1552	truth_conditions	danger/distinct	legs	generic	26	silver	5	True	ackles
5	1778	truth_conditions	nondistinctive	stripes	generic	27	silver	5	True	frams
5	1712	truth_conditions	nondistinctive	legs	generic	28	pink	45	True	feps
5	2790	truth_conditions	danger/distinct	shells	generic	29	orange	5	True	luzaks
6	14976	truth_conditions	nondistinctive	feathers	generic	0	red	35	True	noobs
6	7591	truth_conditions	nondistinctive	shells	generic	1	purple	25	True	javs
6	3488	truth_conditions	danger/distinct	spots	generic	2	red	25	True	sapers
6	4450	truth_conditions	nondistinctive	fur	generic	3	copper	15	True	kweps
6	3193	truth_conditions	nondistinctive	stripes	generic	4	silver	15	True	frams
6	1729	truth_conditions	nondistinctive	spots	generic	5	gold	5	True	stups
6	3946	truth_conditions	danger/distinct	scales	generic	6	blue	45	True	reesles
6	2808	truth_conditions	bare	feathers	generic	7	purple	15	True	lorches
6	3081	truth_conditions	bare	tails	generic	8	orange	5	True	zorbs
6	3461	truth_conditions	bare	shells	generic	9	green	35	True	moxes
6	2099	truth_conditions	bare	teeth	generic	10	pink	45	True	krivels
6	2602	truth_conditions	danger/distinct	shells	generic	11	orange	25	True	luzaks
6	2941	truth_conditions	danger/distinct	tails	generic	12	purple	35	True	taifels
6	1912	truth_conditions	bare	stripes	generic	13	gold	35	True	daiths
6	1577	truth_conditions	bare	ears	generic	14	blue	15	True	cheebas
6	2366	truth_conditions	nondistinctive	ears	generic	15	orange	45	True	kazzes
6	4884	truth_conditions	danger/distinct	feathers	generic	16	gold	45	True	plovs
6	4313	truth_conditions	nondistinctive	legs	generic	17	pink	45	True	feps
6	1445	truth_conditions	nondistinctive	tails	generic	18	green	25	True	trufts
6	1727	truth_conditions	nondistinctive	scales	generic	19	yellow	35	True	dorbs
6	3728	truth_conditions	danger/distinct	fur	generic	20	yellow	35	True	ollers
6	2289	truth_conditions	bare	spots	generic	21	copper	25	True	glippets
6	2050	truth_conditions	bare	legs	generic	22	yellow	45	True	ludinos
6	3937	truth_conditions	danger/distinct	stripes	generic	23	copper	5	True	mooks
6	1703	truth_conditions	bare	fur	generic	24	silver	5	True	morseths
6	2294	truth_conditions	danger/distinct	teeth	generic	25	green	15	True	zoovs
6	2388	truth_conditions	danger/distinct	ears	generic	26	pink	5	True	elleps
6	2076	truth_conditions	danger/distinct	legs	generic	27	silver	15	True	ackles
6	1941	truth_conditions	bare	scales	generic	28	red	25	True	blins
6	6789	truth_conditions	nondistinctive	teeth	generic	29	blue	5	True	thups
7	16088	truth_conditions	nondistinctive	teeth	generic	0	blue	35	False	thups
7	7745	truth_conditions	bare	fur	generic	1	silver	25	False	morseths
7	10368	truth_conditions	nondistinctive	shells	generic	2	purple	5	False	javs
7	3816	truth_conditions	bare	ears	generic	3	blue	45	False	cheebas
7	3260	truth_conditions	nondistinctive	fur	generic	4	copper	15	False	kweps
7	2226	truth_conditions	bare	shells	generic	5	green	15	False	moxes
7	8345	truth_conditions	danger/distinct	shells	generic	6	orange	15	True	luzaks
7	2826	truth_conditions	danger/distinct	stripes	generic	7	copper	35	True	mooks
7	3095	truth_conditions	bare	teeth	generic	8	pink	35	False	krivels
7	1843	truth_conditions	bare	tails	generic	9	orange	45	False	zorbs
7	3498	truth_conditions	danger/distinct	feathers	generic	10	gold	45	True	plovs
7	3100	truth_conditions	bare	stripes	generic	11	gold	35	False	daiths
7	4192	truth_conditions	nondistinctive	tails	generic	12	green	25	False	trufts
7	4293	truth_conditions	danger/distinct	spots	generic	13	red	25	True	sapers
7	2723	truth_conditions	danger/distinct	fur	generic	14	yellow	5	True	ollers
7	3570	truth_conditions	danger/distinct	tails	generic	15	purple	25	True	taifels
7	3385	truth_conditions	danger/distinct	teeth	generic	16	green	15	True	zoovs
7	4209	truth_conditions	nondistinctive	stripes	generic	17	silver	35	False	frams
7	3058	truth_conditions	bare	feathers	generic	18	purple	25	False	lorches
7	3128	truth_conditions	nondistinctive	spots	generic	19	gold	15	False	stups
7	4542	truth_conditions	danger/distinct	ears	generic	20	pink	45	True	elleps
7	5053	truth_conditions	danger/distinct	scales	generic	21	blue	5	True	reesles
7	2180	truth_conditions	danger/distinct	legs	generic	22	silver	35	True	ackles
7	3079	truth_conditions	bare	scales	generic	23	red	5	False	blins
7	2829	truth_conditions	bare	legs	generic	24	yellow	15	False	ludinos
7	4643	truth_conditions	nondistinctive	ears	generic	25	orange	45	False	kazzes
7	2377	truth_conditions	nondistinctive	legs	generic	26	pink	25	False	feps
7	5278	truth_conditions	nondistinctive	feathers	generic	27	red	5	False	noobs
7	2308	truth_conditions	bare	spots	generic	28	copper	5	False	glippets
7	2571	truth_conditions	nondistinctive	scales	generic	29	yellow	45	False	dorbs
8	2810	truth_conditions	bare	shells	generic	0	green	5	False	moxes
8	7600	truth_conditions	bare	fur	generic	1	silver	25	False	morseths
8	1698	truth_conditions	bare	legs	generic	2	yellow	45	False	ludinos
8	3750	truth_conditions	danger/distinct	ears	generic	3	pink	35	True	elleps
8	18792	truth_conditions	danger/distinct	feathers	generic	4	gold	15	True	plovs
8	2254	truth_conditions	danger/distinct	stripes	generic	5	copper	5	True	mooks
8	13366	truth_conditions	nondistinctive	spots	generic	6	gold	45	False	stups
8	1712	truth_conditions	nondistinctive	legs	generic	7	pink	25	False	feps
8	2546	truth_conditions	danger/distinct	tails	generic	8	purple	45	True	taifels
8	16207	truth_conditions	nondistinctive	teeth	generic	9	blue	25	False	thups
8	1626	truth_conditions	bare	feathers	generic	10	purple	35	False	lorches
8	1193	truth_conditions	bare	stripes	generic	11	gold	45	False	daiths
8	1824	truth_conditions	nondistinctive	scales	generic	12	yellow	35	False	dorbs
8	13620	truth_conditions	danger/distinct	scales	generic	13	blue	25	True	reesles
8	1358	truth_conditions	bare	tails	generic	14	orange	15	False	zorbs
8	1541	truth_conditions	danger/distinct	shells	generic	15	orange	5	True	luzaks
8	12510	truth_conditions	danger/distinct	spots	generic	16	red	45	True	sapers
8	1926	truth_conditions	nondistinctive	ears	generic	17	orange	35	False	kazzes
8	2601	truth_conditions	nondistinctive	feathers	generic	18	red	45	False	noobs
8	1400	truth_conditions	danger/distinct	teeth	generic	19	green	25	True	zoovs
8	12438	truth_conditions	danger/distinct	fur	generic	20	yellow	15	True	ollers
8	1908	truth_conditions	nondistinctive	stripes	generic	21	silver	5	False	frams
8	1554	truth_conditions	nondistinctive	shells	generic	22	purple	15	False	javs
8	1670	truth_conditions	bare	ears	generic	23	blue	25	False	cheebas
8	1478	truth_conditions	danger/distinct	legs	generic	24	silver	35	True	ackles
8	3349	truth_conditions	nondistinctive	tails	generic	25	green	5	False	trufts
8	2056	truth_conditions	bare	spots	generic	26	copper	35	False	glippets
8	7740	truth_conditions	nondistinctive	fur	generic	27	copper	15	False	kweps
8	1202	truth_conditions	bare	scales	generic	28	red	5	False	blins
8	2355	truth_conditions	bare	teeth	generic	29	pink	15	False	krivels
9	12692	truth_conditions	danger/distinct	scales	generic	0	blue	45	True	reesles
9	9683	truth_conditions	nondistinctive	shells	generic	1	purple	25	True	javs
9	2138	truth_conditions	bare	feathers	generic	2	purple	25	False	lorches
9	1314	truth_conditions	nondistinctive	teeth	generic	3	blue	35	True	thups
9	1059	truth_conditions	danger/distinct	legs	generic	4	silver	5	True	ackles
9	1449	truth_conditions	danger/distinct	spots	generic	5	red	35	False	sapers
9	1170	truth_conditions	danger/distinct	feathers	generic	6	gold	45	True	plovs
9	1485	truth_conditions	nondistinctive	scales	generic	7	yellow	5	True	dorbs
9	2070	truth_conditions	nondistinctive	feathers	generic	8	red	5	False	noobs
9	1238	truth_conditions	danger/distinct	shells	generic	9	orange	35	True	luzaks
9	2261	truth_conditions	bare	spots	generic	10	copper	45	True	glippets
9	1630	truth_conditions	danger/distinct	stripes	generic	11	copper	15	False	mooks
9	1282	truth_conditions	nondistinctive	fur	generic	12	copper	15	False	kweps
9	1225	truth_conditions	bare	teeth	generic	13	pink	35	True	krivels
9	1506	truth_conditions	danger/distinct	ears	generic	14	pink	15	False	elleps
9	1204	truth_conditions	bare	stripes	generic	15	gold	5	False	daiths
9	1339	truth_conditions	danger/distinct	tails	generic	16	purple	5	False	taifels
9	934	truth_conditions	bare	fur	generic	17	silver	35	True	morseths
9	24559	truth_conditions	nondistinctive	spots	generic	18	gold	15	True	stups
9	1383	truth_conditions	bare	tails	generic	19	orange	15	False	zorbs
9	1361	truth_conditions	danger/distinct	fur	generic	20	yellow	25	False	ollers
9	1372	truth_conditions	bare	legs	generic	21	yellow	5	True	ludinos
9	1249	truth_conditions	bare	scales	generic	22	red	25	False	blins
9	1687	truth_conditions	nondistinctive	ears	generic	23	orange	45	True	kazzes
9	901	truth_conditions	nondistinctive	legs	generic	24	pink	45	False	feps
9	2902	truth_conditions	danger/distinct	teeth	generic	25	green	25	True	zoovs
9	1114	truth_conditions	nondistinctive	tails	generic	26	green	35	False	trufts
9	1338	truth_conditions	bare	shells	generic	27	green	15	False	moxes
9	1034	truth_conditions	nondistinctive	stripes	generic	28	silver	25	False	frams
9	1260	truth_conditions	bare	ears	generic	29	blue	45	False	cheebas
10	16932	truth_conditions	danger/distinct	stripes	generic	0	copper	25	False	mooks
10	7025	truth_conditions	nondistinctive	feathers	generic	1	red	35	False	noobs
10	4366	truth_conditions	nondistinctive	teeth	generic	2	blue	25	False	thups
10	3055	truth_conditions	danger/distinct	spots	generic	3	red	35	False	sapers
10	4671	truth_conditions	bare	feathers	generic	4	purple	15	False	lorches
10	2937	truth_conditions	danger/distinct	feathers	generic	5	gold	5	False	plovs
10	3660	truth_conditions	bare	shells	generic	6	green	5	False	moxes
10	2885	truth_conditions	nondistinctive	ears	generic	7	orange	15	False	kazzes
10	5222	truth_conditions	bare	legs	generic	8	yellow	45	False	ludinos
10	2757	truth_conditions	danger/distinct	ears	generic	9	pink	35	False	elleps
10	3147	truth_conditions	bare	fur	generic	10	silver	25	False	morseths
10	3552	truth_conditions	danger/distinct	legs	generic	11	silver	45	False	ackles
10	2238	truth_conditions	nondistinctive	shells	generic	12	purple	35	False	javs
10	1925	truth_conditions	danger/distinct	tails	generic	13	purple	25	False	taifels
10	2781	truth_conditions	bare	ears	generic	14	blue	35	False	cheebas
10	2090	truth_conditions	nondistinctive	spots	generic	15	gold	5	False	stups
10	2845	truth_conditions	nondistinctive	scales	generic	16	yellow	45	False	dorbs
10	1950	truth_conditions	nondistinctive	legs	generic	17	pink	5	False	feps
10	3744	truth_conditions	bare	stripes	generic	18	gold	25	False	daiths
10	2745	truth_conditions	danger/distinct	teeth	generic	19	green	15	False	zoovs
10	1973	truth_conditions	bare	spots	generic	20	copper	45	False	glippets
10	2207	truth_conditions	danger/distinct	fur	generic	21	yellow	5	False	ollers
10	2934	truth_conditions	bare	scales	generic	22	red	35	False	blins
10	1455	truth_conditions	danger/distinct	shells	generic	23	orange	45	False	luzaks
10	1654	truth_conditions	nondistinctive	stripes	generic	24	silver	45	False	frams
10	2590	truth_conditions	bare	teeth	generic	25	pink	5	False	krivels
10	2609	truth_conditions	nondistinctive	tails	generic	26	green	25	False	trufts
10	2696	truth_conditions	danger/distinct	scales	generic	27	blue	15	False	reesles
10	2300	truth_conditions	nondistinctive	fur	generic	28	copper	15	False	kweps
10	2162	truth_conditions	bare	tails	generic	29	orange	15	False	zorbs
11	29131	truth_conditions	danger/distinct	stripes	generic	0	copper	5	False	mooks
11	16656	truth_conditions	danger/distinct	ears	generic	1	pink	25	True	elleps
11	6400	truth_conditions	bare	fur	generic	2	silver	25	False	morseths
11	16488	truth_conditions	nondistinctive	stripes	generic	3	silver	15	True	frams
11	8997	truth_conditions	bare	teeth	generic	4	pink	45	True	krivels
11	11871	truth_conditions	nondistinctive	ears	generic	5	orange	35	True	kazzes
11	8563	truth_conditions	danger/distinct	scales	generic	6	blue	15	True	reesles
11	8763	truth_conditions	nondistinctive	scales	generic	7	yellow	5	True	dorbs
11	7403	truth_conditions	nondistinctive	fur	generic	8	copper	35	True	kweps
11	10069	truth_conditions	nondistinctive	teeth	generic	9	blue	5	True	thups
11	4606	truth_conditions	bare	scales	generic	10	red	35	True	blins
11	7315	truth_conditions	nondistinctive	tails	generic	11	green	45	True	trufts
11	6794	truth_conditions	danger/distinct	teeth	generic	12	green	45	True	zoovs
11	5004	truth_conditions	bare	spots	generic	13	copper	25	True	glippets
11	8537	truth_conditions	danger/distinct	feathers	generic	14	gold	25	True	plovs
11	5621	truth_conditions	danger/distinct	legs	generic	15	silver	35	True	ackles
11	3495	truth_conditions	bare	tails	generic	16	orange	5	True	zorbs
11	4916	truth_conditions	nondistinctive	shells	generic	17	purple	15	True	javs
11	3844	truth_conditions	nondistinctive	legs	generic	18	pink	25	True	feps
11	4880	truth_conditions	danger/distinct	fur	generic	19	yellow	45	True	ollers
11	6265	truth_conditions	danger/distinct	tails	generic	20	purple	15	True	taifels
11	4313	truth_conditions	bare	legs	generic	21	yellow	45	True	ludinos
11	6323	truth_conditions	bare	ears	generic	22	blue	35	True	cheebas
11	3446	truth_conditions	bare	shells	generic	23	green	15	True	moxes
11	10749	truth_conditions	danger/distinct	spots	generic	24	red	5	True	sapers
11	10474	truth_conditions	nondistinctive	feathers	generic	25	red	25	True	noobs
11	3864	truth_conditions	nondistinctive	spots	generic	26	gold	45	True	stups
11	4164	truth_conditions	bare	feathers	generic	27	purple	15	True	lorches
11	6581	truth_conditions	danger/distinct	shells	generic	28	orange	35	True	luzaks
11	3943	truth_conditions	bare	stripes	generic	29	gold	5	True	daiths
12	19842	truth_conditions	nondistinctive	shells	generic	0	purple	25	False	javs
12	8721	truth_conditions	nondistinctive	stripes	generic	1	silver	35	False	frams
12	17054	truth_conditions	danger/distinct	stripes	generic	2	copper	25	True	mooks
12	4848	truth_conditions	bare	teeth	generic	3	pink	15	False	krivels
12	4083	truth_conditions	bare	ears	generic	4	blue	45	False	cheebas
12	16756	truth_conditions	nondistinctive	teeth	generic	5	blue	45	True	thups
12	4833	truth_conditions	bare	stripes	generic	6	gold	5	False	daiths
12	10190	truth_conditions	nondistinctive	tails	generic	7	green	15	False	trufts
12	9412	truth_conditions	nondistinctive	scales	generic	8	yellow	25	True	dorbs
12	3816	truth_conditions	bare	shells	generic	9	green	25	True	moxes
12	6760	truth_conditions	bare	legs	generic	10	yellow	5	False	ludinos
12	5354	truth_conditions	bare	tails	generic	11	orange	15	False	zorbs
12	9985	truth_conditions	danger/distinct	legs	generic	12	silver	15	True	ackles
12	8058	truth_conditions	danger/distinct	tails	generic	13	purple	35	True	taifels
12	4812	truth_conditions	bare	spots	generic	14	copper	45	True	glippets
12	6547	truth_conditions	danger/distinct	ears	generic	15	pink	5	True	elleps
12	7120	truth_conditions	danger/distinct	shells	generic	16	orange	15	True	luzaks
12	6356	truth_conditions	danger/distinct	scales	generic	17	blue	5	True	reesles
12	8166	truth_conditions	nondistinctive	ears	generic	18	orange	45	True	kazzes
12	9057	truth_conditions	nondistinctive	legs	generic	19	pink	15	False	feps
12	3875	truth_conditions	bare	scales	generic	20	red	25	True	blins
12	3125	truth_conditions	bare	feathers	generic	21	purple	35	True	lorches
12	4309	truth_conditions	nondistinctive	spots	generic	22	gold	5	True	stups
12	5225	truth_conditions	danger/distinct	spots	generic	23	red	45	True	sapers
12	5322	truth_conditions	nondistinctive	fur	generic	24	copper	35	True	kweps
12	5754	truth_conditions	danger/distinct	fur	generic	25	yellow	35	True	ollers
12	7906	truth_conditions	danger/distinct	teeth	generic	26	green	45	True	zoovs
12	7182	truth_conditions	nondistinctive	feathers	generic	27	red	5	False	noobs
12	4517	truth_conditions	danger/distinct	feathers	generic	28	gold	25	True	plovs
12	3888	truth_conditions	bare	fur	generic	29	silver	35	True	morseths
13	12588	truth_conditions	nondistinctive	teeth	generic	0	blue	5	True	thups
13	3318	truth_conditions	bare	teeth	generic	1	pink	25	True	krivels
13	16481	truth_conditions	nondistinctive	spots	generic	2	gold	15	True	stups
13	4416	truth_conditions	danger/distinct	scales	generic	3	blue	15	True	reesles
13	2253	truth_conditions	bare	fur	generic	4	silver	25	True	morseths
13	3049	truth_conditions	nondistinctive	ears	generic	5	orange	35	True	kazzes
13	3151	truth_conditions	danger/distinct	spots	generic	6	red	25	True	sapers
13	12263	truth_conditions	danger/distinct	feathers	generic	7	gold	5	True	plovs
13	3768	truth_conditions	danger/distinct	legs	generic	8	silver	25	True	ackles
13	4163	truth_conditions	nondistinctive	stripes	generic	9	silver	35	True	frams
13	2470	truth_conditions	danger/distinct	stripes	generic	10	copper	5	True	mooks
13	2400	truth_conditions	nondistinctive	scales	generic	11	yellow	45	True	dorbs
13	2815	truth_conditions	nondistinctive	feathers	generic	12	red	45	True	noobs
13	2217	truth_conditions	nondistinctive	legs	generic	13	pink	15	True	feps
13	3032	truth_conditions	danger/distinct	fur	generic	14	yellow	45	True	ollers
13	2068	truth_conditions	nondistinctive	tails	generic	15	green	25	True	trufts
13	2583	truth_conditions	danger/distinct	teeth	generic	16	green	35	True	zoovs
13	4884	truth_conditions	bare	shells	generic	17	green	45	True	moxes
13	3233	truth_conditions	nondistinctive	fur	generic	18	copper	5	True	kweps
13	3298	truth_conditions	bare	feathers	generic	19	purple	5	True	lorches
13	2099	truth_conditions	bare	spots	generic	20	copper	35	True	glippets
13	2286	truth_conditions	bare	legs	generic	21	yellow	35	True	ludinos
13	3516	truth_conditions	danger/distinct	tails	generic	22	purple	15	True	taifels
13	2184	truth_conditions	bare	tails	generic	23	orange	5	True	zorbs
13	2149	truth_conditions	bare	stripes	generic	24	gold	15	True	daiths
13	3051	truth_conditions	danger/distinct	ears	generic	25	pink	45	True	elleps
13	1549	truth_conditions	bare	ears	generic	26	blue	45	True	cheebas
13	2200	truth_conditions	nondistinctive	shells	generic	27	purple	25	True	javs
13	2134	truth_conditions	danger/distinct	shells	generic	28	orange	35	True	luzaks
13	1900	truth_conditions	bare	scales	generic	29	red	15	True	blins
14	9341	truth_conditions	nondistinctive	feathers	generic	0	red	45	True	noobs
14	3336	truth_conditions	bare	spots	generic	1	copper	25	True	glippets
14	4790	truth_conditions	danger/distinct	legs	generic	2	silver	15	True	ackles
14	2144	truth_conditions	bare	teeth	generic	3	pink	45	True	krivels
14	2223	truth_conditions	bare	scales	generic	4	red	25	True	blins
14	4152	truth_conditions	danger/distinct	teeth	generic	5	green	25	True	zoovs
14	3383	truth_conditions	danger/distinct	stripes	generic	6	copper	15	True	mooks
14	3975	truth_conditions	nondistinctive	spots	generic	7	gold	35	False	stups
14	1871	truth_conditions	bare	legs	generic	8	yellow	5	False	ludinos
14	6079	truth_conditions	nondistinctive	shells	generic	9	purple	25	False	javs
14	5195	truth_conditions	danger/distinct	spots	generic	10	red	5	True	sapers
14	2451	truth_conditions	bare	fur	generic	11	silver	15	False	morseths
14	2014	truth_conditions	bare	shells	generic	12	green	35	False	moxes
14	1375	truth_conditions	bare	ears	generic	13	blue	45	True	cheebas
14	3648	truth_conditions	danger/distinct	feathers	generic	14	gold	35	True	plovs
14	3190	truth_conditions	nondistinctive	fur	generic	15	copper	5	False	kweps
14	3784	truth_conditions	nondistinctive	scales	generic	16	yellow	45	True	dorbs
14	1783	truth_conditions	bare	feathers	generic	17	purple	15	False	lorches
14	2615	truth_conditions	nondistinctive	legs	generic	18	pink	25	False	feps
14	2640	truth_conditions	nondistinctive	tails	generic	19	green	15	False	trufts
14	4033	truth_conditions	danger/distinct	fur	generic	20	yellow	35	True	ollers
14	3269	truth_conditions	nondistinctive	stripes	generic	21	silver	35	False	frams
14	3038	truth_conditions	danger/distinct	shells	generic	22	orange	45	True	luzaks
14	2616	truth_conditions	danger/distinct	scales	generic	23	blue	25	True	reesles
14	4664	truth_conditions	danger/distinct	tails	generic	24	purple	5	True	taifels
14	2711	truth_conditions	danger/distinct	ears	generic	25	pink	45	True	elleps
14	2391	truth_conditions	bare	stripes	generic	26	gold	5	False	daiths
14	1663	truth_conditions	bare	tails	generic	27	orange	35	False	zorbs
14	2743	truth_conditions	nondistinctive	teeth	generic	28	blue	5	False	thups
14	2695	truth_conditions	nondistinctive	ears	generic	29	orange	15	False	kazzes
15	13562	truth_conditions	bare	tails	generic	0	orange	35	False	zorbs
15	14210	truth_conditions	danger/distinct	teeth	generic	1	green	45	False	zoovs
15	5186	truth_conditions	bare	fur	generic	2	silver	25	False	morseths
15	6673	truth_conditions	danger/distinct	shells	generic	3	orange	5	False	luzaks
15	5156	truth_conditions	bare	feathers	generic	4	purple	15	False	lorches
15	9727	truth_conditions	nondistinctive	teeth	generic	5	blue	35	False	thups
15	6172	truth_conditions	nondistinctive	spots	generic	6	gold	25	False	stups
15	8058	truth_conditions	nondistinctive	fur	generic	7	copper	15	False	kweps
15	4302	truth_conditions	bare	shells	generic	8	green	25	False	moxes
15	7777	truth_conditions	danger/distinct	ears	generic	9	pink	35	True	elleps
15	4086	truth_conditions	bare	ears	generic	10	blue	45	True	cheebas
15	6791	truth_conditions	nondistinctive	shells	generic	11	purple	5	False	javs
15	6261	truth_conditions	nondistinctive	feathers	generic	12	red	45	False	noobs
15	12030	truth_conditions	nondistinctive	tails	generic	13	green	15	False	trufts
15	9984	truth_conditions	nondistinctive	stripes	generic	14	silver	35	False	frams
15	7189	truth_conditions	danger/distinct	legs	generic	15	silver	45	False	ackles
15	5347	truth_conditions	nondistinctive	scales	generic	16	yellow	25	False	dorbs
15	6360	truth_conditions	danger/distinct	feathers	generic	17	gold	5	False	plovs
15	3631	truth_conditions	nondistinctive	ears	generic	18	orange	45	False	kazzes
15	3167	truth_conditions	nondistinctive	legs	generic	19	pink	5	False	feps
15	3871	truth_conditions	bare	spots	generic	20	copper	45	False	glippets
15	2787	truth_conditions	bare	scales	generic	21	red	15	False	blins
15	2550	truth_conditions	bare	legs	generic	22	yellow	5	False	ludinos
15	3936	truth_conditions	danger/distinct	spots	generic	23	red	25	False	sapers
15	4327	truth_conditions	danger/distinct	tails	generic	24	purple	15	False	taifels
15	4155	truth_conditions	bare	stripes	generic	25	gold	5	False	daiths
15	2876	truth_conditions	danger/distinct	stripes	generic	26	copper	25	False	mooks
15	4024	truth_conditions	danger/distinct	scales	generic	27	blue	15	False	reesles
15	9284	truth_conditions	danger/distinct	fur	generic	28	yellow	35	False	ollers
15	3394	truth_conditions	bare	teeth	generic	29	pink	35	False	krivels
16	16273	truth_conditions	nondistinctive	scales	generic	0	yellow	35	True	dorbs
16	3681	truth_conditions	nondistinctive	stripes	generic	1	silver	15	False	frams
16	10065	truth_conditions	nondistinctive	feathers	generic	2	red	35	True	noobs
16	2548	truth_conditions	bare	spots	generic	3	copper	35	True	glippets
16	2975	truth_conditions	danger/distinct	teeth	generic	4	green	5	False	zoovs
16	2556	truth_conditions	bare	scales	generic	5	red	5	False	blins
16	2653	truth_conditions	danger/distinct	ears	generic	6	pink	45	True	elleps
16	4757	truth_conditions	bare	legs	generic	7	yellow	25	True	ludinos
16	6275	truth_conditions	danger/distinct	shells	generic	8	orange	35	True	luzaks
16	4309	truth_conditions	nondistinctive	spots	generic	9	gold	5	False	stups
16	4653	truth_conditions	danger/distinct	spots	generic	10	red	25	True	sapers
16	7988	truth_conditions	nondistinctive	legs	generic	11	pink	25	True	feps
16	3374	truth_conditions	nondistinctive	shells	generic	12	purple	45	True	javs
16	2317	truth_conditions	bare	feathers	generic	13	purple	45	True	lorches
16	4380	truth_conditions	nondistinctive	teeth	generic	14	blue	15	False	thups
16	3988	truth_conditions	nondistinctive	fur	generic	15	copper	25	True	kweps
16	6214	truth_conditions	bare	shells	generic	16	green	15	True	moxes
16	4620	truth_conditions	danger/distinct	tails	generic	17	purple	5	False	taifels
16	5216	truth_conditions	danger/distinct	stripes	generic	18	copper	15	True	mooks
16	4534	truth_conditions	danger/distinct	legs	generic	19	silver	35	True	ackles
16	3394	truth_conditions	bare	tails	generic	20	orange	5	False	zorbs
16	2073	truth_conditions	bare	fur	generic	21	silver	35	True	morseths
16	2322	truth_conditions	bare	teeth	generic	22	pink	45	True	krivels
16	11686	truth_conditions	bare	ears	generic	23	blue	15	False	cheebas
16	1672	truth_conditions	bare	stripes	generic	24	gold	25	True	daiths
16	3158	truth_conditions	danger/distinct	fur	generic	25	yellow	25	True	ollers
16	1945	truth_conditions	danger/distinct	scales	generic	26	blue	45	True	reesles
16	3460	truth_conditions	nondistinctive	tails	generic	27	green	5	False	trufts
16	2613	truth_conditions	nondistinctive	ears	generic	28	orange	45	True	kazzes
16	6322	truth_conditions	danger/distinct	feathers	generic	29	gold	15	False	plovs
17	5368	truth_conditions	danger/distinct	stripes	generic	0	copper	45	True	mooks
17	1618	truth_conditions	bare	fur	generic	1	silver	15	False	morseths
17	3524	truth_conditions	danger/distinct	fur	generic	2	yellow	15	False	ollers
17	2552	truth_conditions	nondistinctive	legs	generic	3	pink	15	False	feps
17	2279	truth_conditions	nondistinctive	tails	generic	4	green	15	False	trufts
17	3194	truth_conditions	nondistinctive	shells	generic	5	purple	45	True	javs
17	1782	truth_conditions	bare	tails	generic	6	orange	35	False	zorbs
17	1692	truth_conditions	bare	teeth	generic	7	pink	5	False	krivels
17	2614	truth_conditions	nondistinctive	scales	generic	8	yellow	35	False	dorbs
17	2915	truth_conditions	nondistinctive	spots	generic	9	gold	45	False	stups
17	1900	truth_conditions	danger/distinct	legs	generic	10	silver	25	True	ackles
17	2541	truth_conditions	bare	spots	generic	11	copper	45	True	glippets
17	3541	truth_conditions	bare	feathers	generic	12	purple	5	False	lorches
17	3812	truth_conditions	danger/distinct	shells	generic	13	orange	35	True	luzaks
17	3403	truth_conditions	nondistinctive	stripes	generic	14	silver	25	False	frams
17	1756	truth_conditions	bare	shells	generic	15	green	25	False	moxes
17	1992	truth_conditions	danger/distinct	teeth	generic	16	green	25	True	zoovs
17	1684	truth_conditions	danger/distinct	tails	generic	17	purple	45	True	taifels
17	1796	truth_conditions	danger/distinct	feathers	generic	18	gold	5	False	plovs
17	1926	truth_conditions	nondistinctive	ears	generic	19	orange	5	False	kazzes
17	1702	truth_conditions	bare	stripes	generic	20	gold	45	True	daiths
17	2072	truth_conditions	nondistinctive	teeth	generic	21	blue	25	False	thups
17	1532	truth_conditions	nondistinctive	feathers	generic	22	red	35	False	noobs
17	1380	truth_conditions	bare	legs	generic	23	yellow	15	False	ludinos
17	1390	truth_conditions	bare	ears	generic	24	blue	35	False	cheebas
17	2921	truth_conditions	nondistinctive	fur	generic	25	copper	5	False	kweps
17	1317	truth_conditions	bare	scales	generic	26	red	25	False	blins
17	2159	truth_conditions	danger/distinct	scales	generic	27	blue	5	True	reesles
17	2042	truth_conditions	danger/distinct	spots	generic	28	red	35	True	sapers
17	2651	truth_conditions	danger/distinct	ears	generic	29	pink	15	True	elleps
18	10820	truth_conditions	bare	scales	generic	0	red	15	False	blins
18	6691	truth_conditions	bare	tails	generic	1	orange	35	False	zorbs
18	13810	truth_conditions	danger/distinct	fur	generic	2	yellow	25	True	ollers
18	6338	truth_conditions	bare	spots	generic	3	copper	5	True	glippets
18	7426	truth_conditions	bare	teeth	generic	4	pink	45	False	krivels
18	9998	truth_conditions	danger/distinct	teeth	generic	5	green	25	True	zoovs
18	9224	truth_conditions	danger/distinct	feathers	generic	6	gold	35	True	plovs
18	8860	truth_conditions	danger/distinct	legs	generic	7	silver	15	True	ackles
18	6567	truth_conditions	bare	stripes	generic	8	gold	15	False	daiths
18	9015	truth_conditions	danger/distinct	scales	generic	9	blue	5	True	reesles
18	12619	truth_conditions	nondistinctive	ears	generic	10	orange	5	False	kazzes
18	8038	truth_conditions	bare	shells	generic	11	green	25	True	moxes
18	8477	truth_conditions	nondistinctive	tails	generic	12	green	5	False	trufts
18	9361	truth_conditions	bare	ears	generic	13	blue	45	False	cheebas
18	10143	truth_conditions	danger/distinct	shells	generic	14	orange	45	False	luzaks
18	6910	truth_conditions	bare	fur	generic	15	silver	25	False	morseths
18	7018	truth_conditions	danger/distinct	ears	generic	16	pink	5	True	elleps
18	7912	truth_conditions	danger/distinct	spots	generic	17	red	15	True	sapers
18	12882	truth_conditions	nondistinctive	fur	generic	18	copper	35	True	kweps
18	7882	truth_conditions	danger/distinct	tails	generic	19	purple	45	True	taifels
18	5430	truth_conditions	nondistinctive	scales	generic	20	yellow	15	False	dorbs
18	7843	truth_conditions	danger/distinct	stripes	generic	21	copper	35	True	mooks
18	8403	truth_conditions	nondistinctive	legs	generic	22	pink	35	True	feps
18	8586	truth_conditions	nondistinctive	stripes	generic	23	silver	15	True	frams
18	15640	truth_conditions	bare	legs	generic	24	yellow	5	False	ludinos
18	7832	truth_conditions	nondistinctive	feathers	generic	25	red	25	True	noobs
18	6552	truth_conditions	nondistinctive	teeth	generic	26	blue	25	False	thups
18	8462	truth_conditions	nondistinctive	spots	generic	27	gold	45	True	stups
18	4995	truth_conditions	bare	feathers	generic	28	purple	35	False	lorches
18	6111	truth_conditions	nondistinctive	shells	generic	29	purple	45	False	javs
19	18030	truth_conditions	danger/distinct	ears	generic	0	pink	15	True	elleps
19	15429	truth_conditions	nondistinctive	shells	generic	1	purple	35	True	javs
19	8294	truth_conditions	nondistinctive	fur	generic	2	copper	5	True	kweps
19	6005	truth_conditions	bare	fur	generic	3	silver	15	True	morseths
19	6109	truth_conditions	bare	ears	generic	4	blue	25	True	cheebas
19	6607	truth_conditions	bare	teeth	generic	5	pink	15	True	krivels
19	7790	truth_conditions	bare	spots	generic	6	copper	35	True	glippets
19	6501	truth_conditions	nondistinctive	scales	generic	7	yellow	45	True	dorbs
19	5192	truth_conditions	nondistinctive	teeth	generic	8	blue	25	True	thups
19	10258	truth_conditions	danger/distinct	teeth	generic	9	green	35	True	zoovs
19	4098	truth_conditions	bare	stripes	generic	10	gold	45	True	daiths
19	6513	truth_conditions	nondistinctive	legs	generic	11	pink	45	True	feps
19	9211	truth_conditions	danger/distinct	scales	generic	12	blue	5	True	reesles
19	5470	truth_conditions	bare	tails	generic	13	orange	5	True	zorbs
19	5455	truth_conditions	nondistinctive	ears	generic	14	orange	25	True	kazzes
19	4603	truth_conditions	danger/distinct	feathers	generic	15	gold	15	True	plovs
19	6157	truth_conditions	danger/distinct	spots	generic	16	red	25	True	sapers
19	5284	truth_conditions	danger/distinct	fur	generic	17	yellow	5	True	ollers
19	6613	truth_conditions	nondistinctive	spots	generic	18	gold	5	True	stups
19	7268	truth_conditions	bare	scales	generic	19	red	45	True	blins
19	4063	truth_conditions	danger/distinct	shells	generic	20	orange	35	True	luzaks
19	3955	truth_conditions	bare	shells	generic	21	green	25	True	moxes
19	4106	truth_conditions	nondistinctive	feathers	generic	22	red	15	True	noobs
19	3566	truth_conditions	danger/distinct	legs	generic	23	silver	45	True	ackles
19	4982	truth_conditions	danger/distinct	tails	generic	24	purple	25	True	taifels
19	4242	truth_conditions	bare	feathers	generic	25	purple	5	True	lorches
19	9494	truth_conditions	nondistinctive	tails	generic	26	green	15	True	trufts
19	6640	truth_conditions	danger/distinct	stripes	generic	27	copper	45	True	mooks
19	7816	truth_conditions	nondistinctive	stripes	generic	28	silver	35	True	frams
19	4986	truth_conditions	bare	legs	generic	29	yellow	35	True	ludinos
20	51530	truth_conditions	nondistinctive	fur	generic	0	copper	35	True	kweps
20	42837	truth_conditions	bare	feathers	generic	1	purple	15	True	lorches
20	12423	truth_conditions	danger/distinct	legs	generic	2	silver	5	True	ackles
20	6138	truth_conditions	bare	teeth	generic	3	pink	45	True	krivels
20	4252	truth_conditions	bare	spots	generic	4	copper	25	True	glippets
20	8117	truth_conditions	nondistinctive	stripes	generic	5	silver	35	True	frams
20	7998	truth_conditions	danger/distinct	fur	generic	6	yellow	45	True	ollers
20	8102	truth_conditions	danger/distinct	spots	generic	7	red	15	True	sapers
20	10266	truth_conditions	nondistinctive	spots	generic	8	gold	45	True	stups
20	7516	truth_conditions	danger/distinct	ears	generic	9	pink	5	True	elleps
20	7033	truth_conditions	danger/distinct	feathers	generic	10	gold	15	True	plovs
20	4048	truth_conditions	bare	stripes	generic	11	gold	45	True	daiths
20	3983	truth_conditions	bare	scales	generic	12	red	15	True	blins
20	7884	truth_conditions	nondistinctive	teeth	generic	13	blue	25	True	thups
20	7917	truth_conditions	danger/distinct	stripes	generic	14	copper	45	True	mooks
20	6164	truth_conditions	nondistinctive	ears	generic	15	orange	45	True	kazzes
20	3850	truth_conditions	danger/distinct	teeth	generic	16	green	25	True	zoovs
20	3784	truth_conditions	bare	shells	generic	17	green	35	True	moxes
20	6870	truth_conditions	nondistinctive	shells	generic	18	purple	5	True	javs
20	3581	truth_conditions	bare	fur	generic	19	silver	35	True	morseths
20	6883	truth_conditions	danger/distinct	scales	generic	20	blue	35	True	reesles
20	6269	truth_conditions	nondistinctive	feathers	generic	21	red	5	True	noobs
20	3449	truth_conditions	bare	ears	generic	22	blue	25	True	cheebas
20	7516	truth_conditions	danger/distinct	tails	generic	23	purple	25	True	taifels
20	5136	truth_conditions	bare	legs	generic	24	yellow	5	True	ludinos
20	6547	truth_conditions	nondistinctive	legs	generic	25	pink	15	True	feps
20	6216	truth_conditions	danger/distinct	shells	generic	26	orange	35	True	luzaks
20	6551	truth_conditions	nondistinctive	scales	generic	27	yellow	15	True	dorbs
20	7684	truth_conditions	nondistinctive	tails	generic	28	green	25	True	trufts
20	4830	truth_conditions	bare	tails	generic	29	orange	5	True	zorbs
21	18382	truth_conditions	danger/distinct	spots	generic	0	red	35	True	sapers
21	10598	truth_conditions	nondistinctive	shells	generic	1	purple	35	True	javs
21	5423	truth_conditions	bare	stripes	generic	2	gold	25	True	daiths
21	9111	truth_conditions	nondistinctive	teeth	generic	3	blue	5	True	thups
21	10063	truth_conditions	nondistinctive	fur	generic	4	copper	35	True	kweps
21	10376	truth_conditions	nondistinctive	spots	generic	5	gold	25	True	stups
21	8143	truth_conditions	danger/distinct	teeth	generic	6	green	5	True	zoovs
21	6111	truth_conditions	bare	legs	generic	7	yellow	45	True	ludinos
21	7328	truth_conditions	bare	spots	generic	8	copper	15	True	glippets
21	7967	truth_conditions	danger/distinct	tails	generic	9	purple	25	True	taifels
21	7065	truth_conditions	danger/distinct	ears	generic	10	pink	5	True	elleps
21	14361	truth_conditions	nondistinctive	feathers	generic	11	red	25	True	noobs
21	8112	truth_conditions	danger/distinct	fur	generic	12	yellow	15	True	ollers
21	7520	truth_conditions	danger/distinct	feathers	generic	13	gold	15	True	plovs
21	9663	truth_conditions	nondistinctive	scales	generic	14	yellow	15	True	dorbs
21	10080	truth_conditions	danger/distinct	scales	generic	15	blue	35	True	reesles
21	4519	truth_conditions	bare	tails	generic	16	orange	5	True	zorbs
21	3832	truth_conditions	bare	feathers	generic	17	purple	15	True	lorches
21	8159	truth_conditions	nondistinctive	stripes	generic	18	silver	15	True	frams
21	3663	truth_conditions	nondistinctive	tails	generic	19	green	5	True	trufts
21	6104	truth_conditions	danger/distinct	legs	generic	20	silver	45	True	ackles
21	10904	truth_conditions	danger/distinct	shells	generic	21	orange	45	True	luzaks
21	9551	truth_conditions	danger/distinct	stripes	generic	22	copper	25	True	mooks
21	5352	truth_conditions	bare	scales	generic	23	red	5	True	blins
21	3840	truth_conditions	bare	teeth	generic	24	pink	25	True	krivels
21	19143	truth_conditions	nondistinctive	ears	generic	25	orange	45	True	kazzes
21	7904	truth_conditions	bare	ears	generic	26	blue	35	True	cheebas
21	3191	truth_conditions	bare	fur	generic	27	silver	35	True	morseths
21	5697	truth_conditions	bare	shells	generic	28	green	45	True	moxes
21	6616	truth_conditions	nondistinctive	legs	generic	29	pink	45	True	feps
22	6995	truth_conditions	nondistinctive	ears	generic	0	orange	25	True	kazzes
22	7284	truth_conditions	nondistinctive	scales	generic	1	yellow	5	True	dorbs
22	6852	truth_conditions	nondistinctive	fur	generic	2	copper	5	True	kweps
22	5144	truth_conditions	nondistinctive	teeth	generic	3	blue	45	True	thups
22	4119	truth_conditions	nondistinctive	feathers	generic	4	red	15	True	noobs
22	7586	truth_conditions	danger/distinct	spots	generic	5	red	35	True	sapers
22	3154	truth_conditions	bare	stripes	generic	6	gold	5	True	daiths
22	4649	truth_conditions	bare	shells	generic	7	green	15	True	moxes
22	4632	truth_conditions	bare	ears	generic	8	blue	35	True	cheebas
22	2456	truth_conditions	bare	spots	generic	9	copper	45	True	glippets
22	3448	truth_conditions	danger/distinct	feathers	generic	10	gold	15	True	plovs
22	3262	truth_conditions	nondistinctive	tails	generic	11	green	45	True	trufts
22	3445	truth_conditions	nondistinctive	shells	generic	12	purple	35	True	javs
22	2951	truth_conditions	danger/distinct	teeth	generic	13	green	15	True	zoovs
22	3385	truth_conditions	danger/distinct	tails	generic	14	purple	25	True	taifels
22	2787	truth_conditions	bare	teeth	generic	15	pink	45	True	krivels
22	3037	truth_conditions	danger/distinct	fur	generic	16	yellow	25	True	ollers
22	2358	truth_conditions	bare	scales	generic	17	red	5	True	blins
22	2180	truth_conditions	bare	tails	generic	18	orange	15	True	zorbs
22	2073	truth_conditions	bare	legs	generic	19	yellow	25	True	ludinos
22	2873	truth_conditions	nondistinctive	stripes	generic	20	silver	25	True	frams
22	2175	truth_conditions	bare	feathers	generic	21	purple	35	True	lorches
22	2696	truth_conditions	danger/distinct	stripes	generic	22	copper	35	True	mooks
22	2959	truth_conditions	danger/distinct	scales	generic	23	blue	45	True	reesles
22	2116	truth_conditions	danger/distinct	ears	generic	24	pink	45	True	elleps
22	2114	truth_conditions	nondistinctive	legs	generic	25	pink	35	True	feps
22	2442	truth_conditions	danger/distinct	legs	generic	26	silver	5	True	ackles
22	2370	truth_conditions	danger/distinct	shells	generic	27	orange	5	True	luzaks
22	2175	truth_conditions	bare	fur	generic	28	silver	25	True	morseths
22	3307	truth_conditions	nondistinctive	spots	generic	29	gold	15	True	stups
23	6754	truth_conditions	bare	ears	generic	0	blue	35	True	cheebas
23	7444	truth_conditions	nondistinctive	spots	generic	1	gold	15	True	stups
23	4633	truth_conditions	bare	fur	generic	2	silver	25	True	morseths
23	2650	truth_conditions	bare	legs	generic	3	yellow	15	True	ludinos
23	3218	truth_conditions	bare	tails	generic	4	orange	15	True	zorbs
23	5797	truth_conditions	nondistinctive	ears	generic	5	orange	5	True	kazzes
23	5253	truth_conditions	danger/distinct	spots	generic	6	red	25	True	sapers
23	2946	truth_conditions	danger/distinct	teeth	generic	7	green	45	True	zoovs
23	2604	truth_conditions	nondistinctive	legs	generic	8	pink	45	True	feps
23	3848	truth_conditions	danger/distinct	scales	generic	9	blue	15	True	reesles
23	3250	truth_conditions	bare	teeth	generic	10	pink	25	True	krivels
23	3418	truth_conditions	danger/distinct	stripes	generic	11	copper	15	True	mooks
23	2081	truth_conditions	bare	feathers	generic	12	purple	5	True	lorches
23	2318	truth_conditions	nondistinctive	shells	generic	13	purple	35	True	javs
23	1602	truth_conditions	nondistinctive	stripes	generic	14	silver	15	True	frams
23	2188	truth_conditions	bare	spots	generic	15	copper	35	True	glippets
23	2411	truth_conditions	bare	stripes	generic	16	gold	5	True	daiths
23	3283	truth_conditions	nondistinctive	fur	generic	17	copper	45	True	kweps
23	3183	truth_conditions	danger/distinct	ears	generic	18	pink	35	True	elleps
23	1712	truth_conditions	bare	shells	generic	19	green	45	True	moxes
23	2371	truth_conditions	nondistinctive	teeth	generic	20	blue	25	True	thups
23	1584	truth_conditions	nondistinctive	tails	generic	21	green	25	True	trufts
23	2113	truth_conditions	danger/distinct	fur	generic	22	yellow	25	True	ollers
23	1953	truth_conditions	nondistinctive	scales	generic	23	yellow	5	True	dorbs
23	1917	truth_conditions	danger/distinct	shells	generic	24	orange	5	True	luzaks
23	1866	truth_conditions	danger/distinct	feathers	generic	25	gold	5	True	plovs
23	1698	truth_conditions	nondistinctive	feathers	generic	26	red	35	True	noobs
23	2000	truth_conditions	danger/distinct	legs	generic	27	silver	35	True	ackles
23	2232	truth_conditions	danger/distinct	tails	generic	28	purple	45	True	taifels
23	3701	truth_conditions	bare	scales	generic	29	red	45	True	blins
24	9520	truth_conditions	nondistinctive	teeth	generic	0	blue	15	True	thups
24	7992	truth_conditions	nondistinctive	tails	generic	1	green	45	True	trufts
24	6894	truth_conditions	bare	spots	generic	2	copper	5	True	glippets
24	10770	truth_conditions	danger/distinct	shells	generic	3	orange	35	True	luzaks
24	4467	truth_conditions	bare	stripes	generic	4	gold	15	True	daiths
24	5127	truth_conditions	danger/distinct	spots	generic	5	red	25	True	sapers
24	5026	truth_conditions	bare	feathers	generic	6	purple	25	True	lorches
24	3364	truth_conditions	bare	scales	generic	7	red	15	True	blins
24	3734	truth_conditions	bare	ears	generic	8	blue	35	True	cheebas
24	7948	truth_conditions	nondistinctive	shells	generic	9	purple	35	True	javs
24	2787	truth_conditions	bare	tails	generic	10	orange	25	True	zorbs
24	7158	truth_conditions	danger/distinct	stripes	generic	11	copper	45	True	mooks
24	2457	truth_conditions	bare	fur	generic	12	silver	45	True	morseths
24	5268	truth_conditions	nondistinctive	stripes	generic	13	silver	45	True	frams
24	5408	truth_conditions	danger/distinct	scales	generic	14	blue	15	True	reesles
24	5394	truth_conditions	danger/distinct	teeth	generic	15	green	35	True	zoovs
24	3871	truth_conditions	bare	teeth	generic	16	pink	5	True	krivels
24	3151	truth_conditions	nondistinctive	ears	generic	17	orange	25	True	kazzes
24	4171	truth_conditions	danger/distinct	fur	generic	18	yellow	25	True	ollers
24	2458	truth_conditions	bare	shells	generic	19	green	45	True	moxes
24	7279	truth_conditions	danger/distinct	feathers	generic	20	gold	5	True	plovs
24	4446	truth_conditions	nondistinctive	legs	generic	21	pink	25	True	feps
24	2394	truth_conditions	nondistinctive	fur	generic	22	copper	15	True	kweps
24	2081	truth_conditions	danger/distinct	ears	generic	23	pink	45	True	elleps
24	3259	truth_conditions	danger/distinct	tails	generic	24	purple	15	True	taifels
24	4917	truth_conditions	nondistinctive	scales	generic	25	yellow	5	True	dorbs
24	4808	truth_conditions	danger/distinct	legs	generic	26	silver	5	True	ackles
24	2033	truth_conditions	nondistinctive	spots	generic	27	gold	5	True	stups
24	2333	truth_conditions	bare	legs	generic	28	yellow	35	True	ludinos
24	4878	truth_conditions	nondistinctive	feathers	generic	29	red	35	True	noobs
25	114795	truth_conditions	danger/distinct	stripes	generic	0	copper	35	True	mooks
25	18080	truth_conditions	bare	teeth	generic	1	pink	35	True	krivels
25	315994	truth_conditions	danger/distinct	ears	generic	2	pink	45	True	elleps
25	8508	truth_conditions	nondistinctive	spots	generic	3	gold	25	True	stups
25	17385	truth_conditions	danger/distinct	shells	generic	4	orange	15	False	luzaks
25	5180	truth_conditions	bare	stripes	generic	5	gold	5	False	daiths
25	12850	truth_conditions	danger/distinct	legs	generic	6	silver	15	False	ackles
25	13425	truth_conditions	nondistinctive	legs	generic	7	pink	5	False	feps
25	7161	truth_conditions	bare	legs	generic	8	yellow	25	True	ludinos
25	9330	truth_conditions	danger/distinct	feathers	generic	9	gold	25	True	plovs
25	10101	truth_conditions	bare	scales	generic	10	red	15	False	blins
25	12981	truth_conditions	danger/distinct	fur	generic	11	yellow	35	True	ollers
25	10567	truth_conditions	nondistinctive	ears	generic	12	orange	35	True	kazzes
25	3869	truth_conditions	nondistinctive	fur	generic	13	copper	15	False	kweps
25	8301	truth_conditions	bare	spots	generic	14	copper	45	True	glippets
25	8184	truth_conditions	bare	fur	generic	15	silver	25	True	morseths
25	11229	truth_conditions	nondistinctive	feathers	generic	16	red	35	True	noobs
25	7217	truth_conditions	nondistinctive	scales	generic	17	yellow	45	True	dorbs
25	7134	truth_conditions	danger/distinct	spots	generic	18	red	25	True	sapers
25	8763	truth_conditions	danger/distinct	tails	generic	19	purple	5	False	taifels
25	8651	truth_conditions	bare	tails	generic	20	orange	5	False	zorbs
25	8883	truth_conditions	nondistinctive	shells	generic	21	purple	45	True	javs
25	9563	truth_conditions	bare	shells	generic	22	green	35	True	moxes
25	6402	truth_conditions	bare	feathers	generic	23	purple	45	True	lorches
25	7817	truth_conditions	nondistinctive	stripes	generic	24	silver	5	False	frams
25	12182	truth_conditions	danger/distinct	scales	generic	25	blue	45	True	reesles
25	12387	truth_conditions	nondistinctive	tails	generic	26	green	15	False	trufts
25	25161	truth_conditions	danger/distinct	teeth	generic	27	green	5	False	zoovs
25	7285	truth_conditions	bare	ears	generic	28	blue	15	False	cheebas
25	8018	truth_conditions	nondistinctive	teeth	generic	29	blue	25	True	thups
26	14074	truth_conditions	bare	teeth	generic	0	pink	35	False	krivels
26	10934	truth_conditions	danger/distinct	legs	generic	1	silver	35	True	ackles
26	5814	truth_conditions	bare	shells	generic	2	green	35	True	moxes
26	7920	truth_conditions	danger/distinct	fur	generic	3	yellow	5	False	ollers
26	5062	truth_conditions	bare	tails	generic	4	orange	25	False	zorbs
26	8618	truth_conditions	nondistinctive	legs	generic	5	pink	15	False	feps
26	7533	truth_conditions	danger/distinct	spots	generic	6	red	25	False	sapers
26	6516	truth_conditions	nondistinctive	stripes	generic	7	silver	5	False	frams
26	7156	truth_conditions	nondistinctive	scales	generic	8	yellow	5	False	dorbs
26	7243	truth_conditions	nondistinctive	teeth	generic	9	blue	45	False	thups
26	8630	truth_conditions	bare	feathers	generic	10	purple	25	False	lorches
26	6661	truth_conditions	danger/distinct	ears	generic	11	pink	5	False	elleps
26	5555	truth_conditions	nondistinctive	fur	generic	12	copper	35	False	kweps
26	5962	truth_conditions	nondistinctive	shells	generic	13	purple	15	False	javs
26	6243	truth_conditions	danger/distinct	shells	generic	14	orange	15	False	luzaks
26	7404	truth_conditions	danger/distinct	stripes	generic	15	copper	35	False	mooks
26	8842	truth_conditions	danger/distinct	feathers	generic	16	gold	45	True	plovs
26	7729	truth_conditions	danger/distinct	scales	generic	17	blue	25	True	reesles
26	7221	truth_conditions	danger/distinct	teeth	generic	18	green	45	True	zoovs
26	6951	truth_conditions	nondistinctive	ears	generic	19	orange	25	False	kazzes
26	7370	truth_conditions	danger/distinct	tails	generic	20	purple	15	True	taifels
26	5096	truth_conditions	nondistinctive	feathers	generic	21	red	45	False	noobs
26	6039	truth_conditions	bare	ears	generic	22	blue	15	False	cheebas
26	4818	truth_conditions	bare	stripes	generic	23	gold	5	False	daiths
26	7706	truth_conditions	bare	legs	generic	24	yellow	45	True	ludinos
26	4880	truth_conditions	bare	fur	generic	25	silver	45	True	morseths
26	6592	truth_conditions	nondistinctive	spots	generic	26	gold	35	False	stups
26	4961	truth_conditions	bare	scales	generic	27	red	15	False	blins
26	5457	truth_conditions	nondistinctive	tails	generic	28	green	25	False	trufts
26	4037	truth_conditions	bare	spots	generic	29	copper	5	False	glippets
27	27686	truth_conditions	danger/distinct	stripes	generic	0	copper	5	True	mooks
27	21703	truth_conditions	danger/distinct	tails	generic	1	purple	35	True	taifels
27	16931	truth_conditions	bare	stripes	generic	2	gold	15	False	daiths
27	17013	truth_conditions	danger/distinct	feathers	generic	3	gold	45	True	plovs
27	12244	truth_conditions	nondistinctive	scales	generic	4	yellow	15	True	dorbs
27	21913	truth_conditions	danger/distinct	shells	generic	5	orange	25	False	luzaks
27	15337	truth_conditions	danger/distinct	spots	generic	6	red	15	False	sapers
27	7154	truth_conditions	danger/distinct	fur	generic	7	yellow	15	False	ollers
27	7223	truth_conditions	nondistinctive	spots	generic	8	gold	5	False	stups
27	8627	truth_conditions	bare	tails	generic	9	orange	35	False	zorbs
27	7025	truth_conditions	nondistinctive	teeth	generic	10	blue	45	True	thups
27	11766	truth_conditions	nondistinctive	stripes	generic	11	silver	45	True	frams
27	7088	truth_conditions	bare	scales	generic	12	red	25	False	blins
27	4625	truth_conditions	bare	spots	generic	13	copper	25	False	glippets
27	4998	truth_conditions	bare	legs	generic	14	yellow	35	False	ludinos
27	6819	truth_conditions	bare	shells	generic	15	green	45	True	moxes
27	10374	truth_conditions	danger/distinct	scales	generic	16	blue	25	False	reesles
27	8397	truth_conditions	nondistinctive	shells	generic	17	purple	5	False	javs
27	4893	truth_conditions	bare	fur	generic	18	silver	45	True	morseths
27	4166	truth_conditions	bare	ears	generic	19	blue	5	False	cheebas
27	10749	truth_conditions	nondistinctive	ears	generic	20	orange	35	False	kazzes
27	5256	truth_conditions	bare	feathers	generic	21	purple	15	False	lorches
27	10131	truth_conditions	danger/distinct	legs	generic	22	silver	35	False	ackles
27	10376	truth_conditions	nondistinctive	fur	generic	23	copper	35	False	kweps
27	3471	truth_conditions	bare	teeth	generic	24	pink	5	False	krivels
27	5473	truth_conditions	danger/distinct	teeth	generic	25	green	45	True	zoovs
27	5882	truth_conditions	nondistinctive	feathers	generic	26	red	15	False	noobs
27	10967	truth_conditions	nondistinctive	tails	generic	27	green	25	False	trufts
27	4130	truth_conditions	danger/distinct	ears	generic	28	pink	5	False	elleps
27	5491	truth_conditions	nondistinctive	legs	generic	29	pink	25	False	feps
28	15800	truth_conditions	nondistinctive	tails	generic	0	green	15	True	trufts
28	8021	truth_conditions	danger/distinct	feathers	generic	1	gold	25	True	plovs
28	8309	truth_conditions	danger/distinct	legs	generic	2	silver	5	True	ackles
28	7943	truth_conditions	danger/distinct	shells	generic	3	orange	25	True	luzaks
28	4814	truth_conditions	bare	scales	generic	4	red	25	True	blins
28	16588	truth_conditions	nondistinctive	legs	generic	5	pink	25	True	feps
28	6411	truth_conditions	danger/distinct	teeth	generic	6	green	45	True	zoovs
28	8396	truth_conditions	danger/distinct	tails	generic	7	purple	45	True	taifels
28	6582	truth_conditions	bare	fur	generic	8	silver	35	True	morseths
28	8545	truth_conditions	nondistinctive	spots	generic	9	gold	45	True	stups
28	2907	truth_conditions	bare	shells	generic	10	green	25	True	moxes
28	6910	truth_conditions	bare	tails	generic	11	orange	45	True	zorbs
28	2519	truth_conditions	bare	teeth	generic	12	pink	15	True	krivels
28	2473	truth_conditions	bare	stripes	generic	13	gold	35	True	daiths
28	77703	truth_conditions	danger/distinct	ears	generic	14	pink	15	True	elleps
28	8829	truth_conditions	nondistinctive	stripes	generic	15	silver	35	True	frams
28	7323	truth_conditions	danger/distinct	stripes	generic	16	copper	15	True	mooks
28	3246	truth_conditions	nondistinctive	feathers	generic	17	red	15	True	noobs
28	4302	truth_conditions	bare	feathers	generic	18	purple	45	True	lorches
28	2727	truth_conditions	bare	ears	generic	19	blue	15	True	cheebas
28	6110	truth_conditions	nondistinctive	teeth	generic	20	blue	5	True	thups
28	4377	truth_conditions	bare	spots	generic	21	copper	5	True	glippets
28	2898	truth_conditions	bare	legs	generic	22	yellow	5	True	ludinos
28	4583	truth_conditions	danger/distinct	fur	generic	23	yellow	5	True	ollers
28	14533	truth_conditions	danger/distinct	spots	generic	24	red	35	True	sapers
28	3524	truth_conditions	nondistinctive	fur	generic	25	copper	45	True	kweps
28	13377	truth_conditions	nondistinctive	scales	generic	26	yellow	35	True	dorbs
28	9747	truth_conditions	danger/distinct	scales	generic	27	blue	35	True	reesles
28	2071	truth_conditions	nondistinctive	ears	generic	28	orange	25	True	kazzes
28	8026	truth_conditions	nondistinctive	shells	generic	29	purple	5	True	javs
29	12839	truth_conditions	bare	feathers	generic	0	purple	25	True	lorches
29	11230	truth_conditions	danger/distinct	shells	generic	1	orange	5	True	luzaks
29	11443	truth_conditions	nondistinctive	scales	generic	2	yellow	45	True	dorbs
29	9958	truth_conditions	bare	tails	generic	3	orange	35	True	zorbs
29	14499	truth_conditions	danger/distinct	ears	generic	4	pink	15	True	elleps
29	9070	truth_conditions	nondistinctive	stripes	generic	5	silver	5	True	frams
29	17650	truth_conditions	nondistinctive	teeth	generic	6	blue	15	True	thups
29	5382	truth_conditions	bare	shells	generic	7	green	45	True	moxes
29	10307	truth_conditions	nondistinctive	fur	generic	8	copper	45	True	kweps
29	7685	truth_conditions	bare	spots	generic	9	copper	15	True	glippets
29	10921	truth_conditions	nondistinctive	spots	generic	10	gold	35	True	stups
29	7023	truth_conditions	danger/distinct	stripes	generic	11	copper	25	True	mooks
29	8090	truth_conditions	danger/distinct	fur	generic	12	yellow	45	True	ollers
29	8922	truth_conditions	danger/distinct	feathers	generic	13	gold	35	True	plovs
29	3993	truth_conditions	bare	teeth	generic	14	pink	45	True	krivels
29	2866	truth_conditions	bare	scales	generic	15	red	5	True	blins
29	7251	truth_conditions	nondistinctive	legs	generic	16	pink	35	True	feps
29	6342	truth_conditions	nondistinctive	tails	generic	17	green	25	True	trufts
29	4906	truth_conditions	nondistinctive	ears	generic	18	orange	15	True	kazzes
29	4306	truth_conditions	bare	legs	generic	19	yellow	5	True	ludinos
29	11671	truth_conditions	danger/distinct	spots	generic	20	red	5	True	sapers
29	4530	truth_conditions	bare	fur	generic	21	silver	15	True	morseths
29	8041	truth_conditions	nondistinctive	shells	generic	22	purple	5	True	javs
29	3601	truth_conditions	danger/distinct	teeth	generic	23	green	45	True	zoovs
29	8506	truth_conditions	danger/distinct	tails	generic	24	purple	35	True	taifels
29	5555	truth_conditions	danger/distinct	legs	generic	25	silver	15	True	ackles
29	5086	truth_conditions	bare	ears	generic	26	blue	25	True	cheebas
29	3446	truth_conditions	bare	stripes	generic	27	gold	35	True	daiths
29	10624	truth_conditions	nondistinctive	feathers	generic	28	red	25	True	noobs
29	10852	truth_conditions	danger/distinct	scales	generic	29	blue	25	True	reesles
30	22202	truth_conditions	danger/distinct	tails	generic	0	purple	45	True	taifels
30	30101	truth_conditions	nondistinctive	feathers	generic	1	red	25	False	noobs
30	29074	truth_conditions	nondistinctive	teeth	generic	2	blue	35	False	thups
30	22618	truth_conditions	nondistinctive	ears	generic	3	orange	15	False	kazzes
30	19307	truth_conditions	nondistinctive	scales	generic	4	yellow	45	False	dorbs
30	9679	truth_conditions	bare	tails	generic	5	orange	5	False	zorbs
30	8720	truth_conditions	bare	shells	generic	6	green	25	False	moxes
30	12426	truth_conditions	bare	feathers	generic	7	purple	35	False	lorches
30	14805	truth_conditions	bare	scales	generic	8	red	5	False	blins
30	20156	truth_conditions	danger/distinct	spots	generic	9	red	5	True	sapers
30	24065	truth_conditions	danger/distinct	ears	generic	10	pink	45	True	elleps
30	14657	truth_conditions	danger/distinct	scales	generic	11	blue	25	True	reesles
30	10488	truth_conditions	bare	fur	generic	12	silver	15	False	morseths
30	17649	truth_conditions	nondistinctive	stripes	generic	13	silver	25	False	frams
30	19462	truth_conditions	nondistinctive	fur	generic	14	copper	5	False	kweps
30	13301	truth_conditions	bare	teeth	generic	15	pink	35	False	krivels
30	17310	truth_conditions	danger/distinct	teeth	generic	16	green	35	True	zoovs
30	9291	truth_conditions	nondistinctive	tails	generic	17	green	5	False	trufts
30	21122	truth_conditions	danger/distinct	feathers	generic	18	gold	5	True	plovs
30	7584	truth_conditions	bare	legs	generic	19	yellow	15	False	ludinos
30	11246	truth_conditions	danger/distinct	fur	generic	20	yellow	15	True	ollers
30	12830	truth_conditions	nondistinctive	legs	generic	21	pink	35	False	feps
30	13172	truth_conditions	danger/distinct	stripes	generic	22	copper	25	True	mooks
30	9374	truth_conditions	bare	ears	generic	23	blue	25	False	cheebas
30	11844	truth_conditions	bare	spots	generic	24	copper	45	False	glippets
30	21435	truth_conditions	nondistinctive	spots	generic	25	gold	15	False	stups
30	24784	truth_conditions	danger/distinct	shells	generic	26	orange	35	True	luzaks
30	15304	truth_conditions	danger/distinct	legs	generic	27	silver	15	True	ackles
30	22140	truth_conditions	nondistinctive	shells	generic	28	purple	45	False	javs
30	9582	truth_conditions	bare	stripes	generic	29	gold	45	False	daiths
31	13513	truth_conditions	danger/distinct	scales	generic	0	blue	35	True	reesles
31	3768	truth_conditions	bare	shells	generic	1	green	15	True	moxes
31	11263	truth_conditions	nondistinctive	spots	generic	2	gold	15	True	stups
31	4718	truth_conditions	danger/distinct	stripes	generic	3	copper	35	True	mooks
31	9728	truth_conditions	danger/distinct	spots	generic	4	red	15	True	sapers
31	4409	truth_conditions	nondistinctive	stripes	generic	5	silver	45	True	frams
31	2361	truth_conditions	bare	fur	generic	6	silver	45	True	morseths
31	3131	truth_conditions	danger/distinct	feathers	generic	7	gold	15	True	plovs
31	5140	truth_conditions	nondistinctive	feathers	generic	8	red	45	True	noobs
31	4746	truth_conditions	nondistinctive	tails	generic	9	green	5	True	trufts
31	2494	truth_conditions	bare	stripes	generic	10	gold	15	True	daiths
31	10975	truth_conditions	danger/distinct	fur	generic	11	yellow	5	True	ollers
31	5689	truth_conditions	nondistinctive	legs	generic	12	pink	25	True	feps
31	3427	truth_conditions	danger/distinct	shells	generic	13	orange	25	True	luzaks
31	5809	truth_conditions	nondistinctive	teeth	generic	14	blue	35	True	thups
31	2905	truth_conditions	bare	ears	generic	15	blue	25	True	cheebas
31	13004	truth_conditions	bare	teeth	generic	16	pink	35	True	krivels
31	2672	truth_conditions	bare	feathers	generic	17	purple	5	True	lorches
31	5305	truth_conditions	nondistinctive	shells	generic	18	purple	25	True	javs
31	2886	truth_conditions	bare	legs	generic	19	yellow	45	True	ludinos
31	6871	truth_conditions	nondistinctive	fur	generic	20	copper	35	True	kweps
31	6214	truth_conditions	bare	scales	generic	21	red	35	True	blins
31	7358	truth_conditions	nondistinctive	scales	generic	22	yellow	5	True	dorbs
31	4534	truth_conditions	nondistinctive	ears	generic	23	orange	15	True	kazzes
31	3588	truth_conditions	danger/distinct	legs	generic	24	silver	45	True	ackles
31	2625	truth_conditions	bare	spots	generic	25	copper	5	True	glippets
31	5850	truth_conditions	danger/distinct	tails	generic	26	purple	45	True	taifels
31	7119	truth_conditions	danger/distinct	ears	generic	27	pink	25	True	elleps
31	5261	truth_conditions	danger/distinct	teeth	generic	28	green	5	True	zoovs
31	2342	truth_conditions	bare	tails	generic	29	orange	25	True	zorbs
32	36095	truth_conditions	danger/distinct	legs	generic	0	silver	25	True	ackles
32	17135	truth_conditions	danger/distinct	ears	generic	1	pink	35	True	elleps
32	36167	truth_conditions	danger/distinct	fur	generic	2	yellow	15	True	ollers
32	24734	truth_conditions	nondistinctive	spots	generic	3	gold	5	False	stups
32	20597	truth_conditions	nondistinctive	feathers	generic	4	red	35	True	noobs
32	13675	truth_conditions	nondistinctive	legs	generic	5	pink	25	True	feps
32	7053	truth_conditions	bare	stripes	generic	6	gold	5	False	daiths
32	8980	truth_conditions	bare	tails	generic	7	orange	25	False	zorbs
32	15070	truth_conditions	nondistinctive	tails	generic	8	green	15	False	trufts
32	11333	truth_conditions	bare	scales	generic	9	red	5	False	blins
32	4849	truth_conditions	bare	shells	generic	10	green	35	False	moxes
32	7143	truth_conditions	bare	spots	generic	11	copper	45	False	glippets
32	19966	truth_conditions	nondistinctive	ears	generic	12	orange	35	False	kazzes
32	5480	truth_conditions	bare	ears	generic	13	blue	25	False	cheebas
32	16233	truth_conditions	danger/distinct	stripes	generic	14	copper	45	False	mooks
32	39491	truth_conditions	danger/distinct	teeth	generic	15	green	25	False	zoovs
32	15230	truth_conditions	nondistinctive	fur	generic	16	copper	15	False	kweps
32	6978	truth_conditions	nondistinctive	stripes	generic	17	silver	5	False	frams
32	30155	truth_conditions	danger/distinct	scales	generic	18	blue	15	False	reesles
32	12558	truth_conditions	nondistinctive	shells	generic	19	purple	45	False	javs
32	13106	truth_conditions	bare	fur	generic	20	silver	35	False	morseths
32	23397	truth_conditions	bare	legs	generic	21	yellow	45	False	ludinos
32	17059	truth_conditions	danger/distinct	tails	generic	22	purple	35	False	taifels
32	6071	truth_conditions	bare	feathers	generic	23	purple	15	False	lorches
32	9320	truth_conditions	nondistinctive	teeth	generic	24	blue	25	False	thups
32	14736	truth_conditions	bare	teeth	generic	25	pink	15	False	krivels
32	31620	truth_conditions	nondistinctive	scales	generic	26	yellow	45	False	dorbs
32	9427	truth_conditions	danger/distinct	shells	generic	27	orange	45	False	luzaks
32	16984	truth_conditions	danger/distinct	spots	generic	28	red	5	False	sapers
32	32869	truth_conditions	danger/distinct	feathers	generic	29	gold	5	False	plovs
33	18358	truth_conditions	danger/distinct	ears	generic	0	pink	35	True	elleps
33	9517	truth_conditions	danger/distinct	teeth	generic	1	green	15	True	zoovs
33	6997	truth_conditions	bare	legs	generic	2	yellow	35	True	ludinos
33	20098	truth_conditions	nondistinctive	feathers	generic	3	red	5	True	noobs
33	10508	truth_conditions	danger/distinct	tails	generic	4	purple	25	True	taifels
33	6436	truth_conditions	bare	feathers	generic	5	purple	35	True	lorches
33	10342	truth_conditions	danger/distinct	feathers	generic	6	gold	35	True	plovs
33	7699	truth_conditions	nondistinctive	stripes	generic	7	silver	45	True	frams
33	9907	truth_conditions	nondistinctive	spots	generic	8	gold	35	True	stups
33	9781	truth_conditions	danger/distinct	scales	generic	9	blue	45	True	reesles
33	4268	truth_conditions	bare	fur	generic	10	silver	15	True	morseths
33	10744	truth_conditions	danger/distinct	fur	generic	11	yellow	25	True	ollers
33	3682	truth_conditions	bare	teeth	generic	12	pink	5	True	krivels
33	7953	truth_conditions	nondistinctive	teeth	generic	13	blue	35	True	thups
33	4183	truth_conditions	bare	tails	generic	14	orange	15	True	zorbs
33	5790	truth_conditions	danger/distinct	legs	generic	15	silver	15	True	ackles
33	6033	truth_conditions	nondistinctive	tails	generic	16	green	15	True	trufts
33	5719	truth_conditions	nondistinctive	scales	generic	17	yellow	45	True	dorbs
33	9103	truth_conditions	nondistinctive	fur	generic	18	copper	5	True	kweps
33	3735	truth_conditions	bare	ears	generic	19	blue	25	True	cheebas
33	5925	truth_conditions	nondistinctive	ears	generic	20	orange	25	True	kazzes
33	6381	truth_conditions	danger/distinct	stripes	generic	21	copper	45	True	mooks
33	3649	truth_conditions	bare	stripes	generic	22	gold	5	True	daiths
33	2793	truth_conditions	bare	spots	generic	23	copper	45	True	glippets
33	7818	truth_conditions	nondistinctive	shells	generic	24	purple	25	True	javs
33	5222	truth_conditions	nondistinctive	legs	generic	25	pink	15	True	feps
33	3904	truth_conditions	danger/distinct	spots	generic	26	red	5	True	sapers
33	3523	truth_conditions	bare	shells	generic	27	green	45	True	moxes
33	6488	truth_conditions	danger/distinct	shells	generic	28	orange	5	True	luzaks
33	3100	truth_conditions	bare	scales	generic	29	red	25	True	blins
34	14626	truth_conditions	danger/distinct	spots	generic	0	red	35	True	sapers
34	12107	truth_conditions	bare	legs	generic	1	yellow	5	False	ludinos
34	9248	truth_conditions	nondistinctive	ears	generic	2	orange	35	True	kazzes
34	12433	truth_conditions	nondistinctive	stripes	generic	3	silver	25	True	frams
34	10166	truth_conditions	danger/distinct	feathers	generic	4	gold	45	True	plovs
34	9328	truth_conditions	danger/distinct	ears	generic	5	pink	25	True	elleps
34	10599	truth_conditions	danger/distinct	tails	generic	6	purple	45	True	taifels
34	5904	truth_conditions	nondistinctive	legs	generic	7	pink	45	True	feps
34	3825	truth_conditions	bare	feathers	generic	8	purple	5	False	lorches
34	15174	truth_conditions	danger/distinct	stripes	generic	9	copper	5	True	mooks
34	8759	truth_conditions	nondistinctive	fur	generic	10	copper	5	True	kweps
34	12888	truth_conditions	nondistinctive	scales	generic	11	yellow	25	True	dorbs
34	5696	truth_conditions	bare	spots	generic	12	copper	25	True	glippets
34	12857	truth_conditions	nondistinctive	tails	generic	13	green	15	True	trufts
34	6292	truth_conditions	nondistinctive	teeth	generic	14	blue	45	True	thups
34	2864	truth_conditions	bare	scales	generic	15	red	45	True	blins
34	4119	truth_conditions	bare	tails	generic	16	orange	35	True	zorbs
34	7800	truth_conditions	danger/distinct	shells	generic	17	orange	25	True	luzaks
34	6743	truth_conditions	nondistinctive	shells	generic	18	purple	15	True	javs
34	2592	truth_conditions	bare	teeth	generic	19	pink	35	True	krivels
34	3151	truth_conditions	bare	fur	generic	20	silver	15	True	morseths
34	5680	truth_conditions	danger/distinct	teeth	generic	21	green	15	True	zoovs
34	8384	truth_conditions	danger/distinct	fur	generic	22	yellow	35	True	ollers
34	9127	truth_conditions	bare	stripes	generic	23	gold	15	True	daiths
34	4567	truth_conditions	bare	shells	generic	24	green	25	True	moxes
34	5089	truth_conditions	nondistinctive	feathers	generic	25	red	5	True	noobs
34	5511	truth_conditions	nondistinctive	spots	generic	26	gold	35	True	stups
34	5976	truth_conditions	danger/distinct	legs	generic	27	silver	5	True	ackles
34	2855	truth_conditions	bare	ears	generic	28	blue	45	True	cheebas
34	6287	truth_conditions	danger/distinct	scales	generic	29	blue	15	True	reesles
35	18025	truth_conditions	nondistinctive	ears	generic	0	orange	5	False	kazzes
35	3120	truth_conditions	bare	fur	generic	1	silver	5	False	morseths
35	3452	truth_conditions	bare	spots	generic	2	copper	5	False	glippets
35	10238	truth_conditions	danger/distinct	legs	generic	3	silver	45	True	ackles
35	8644	truth_conditions	nondistinctive	stripes	generic	4	silver	15	False	frams
35	6429	truth_conditions	danger/distinct	tails	generic	5	purple	15	False	taifels
35	3194	truth_conditions	bare	scales	generic	6	red	15	False	blins
35	2674	truth_conditions	bare	tails	generic	7	orange	45	True	zorbs
35	6294	truth_conditions	danger/distinct	shells	generic	8	orange	5	False	luzaks
35	5167	truth_conditions	nondistinctive	fur	generic	9	copper	35	True	kweps
35	5128	truth_conditions	bare	ears	generic	10	blue	25	True	cheebas
35	5736	truth_conditions	danger/distinct	fur	generic	11	yellow	45	True	ollers
35	3632	truth_conditions	nondistinctive	scales	generic	12	yellow	5	False	dorbs
35	5382	truth_conditions	nondistinctive	shells	generic	13	purple	15	False	javs
35	8339	truth_conditions	bare	feathers	generic	14	purple	35	False	lorches
35	1958	truth_conditions	bare	teeth	generic	15	pink	35	False	krivels
35	6270	truth_conditions	nondistinctive	teeth	generic	16	blue	25	False	thups
35	9387	truth_conditions	nondistinctive	feathers	generic	17	red	25	False	noobs
35	5707	truth_conditions	nondistinctive	legs	generic	18	pink	35	False	feps
35	3783	truth_conditions	danger/distinct	scales	generic	19	blue	25	False	reesles
35	2541	truth_conditions	danger/distinct	ears	generic	20	pink	15	False	elleps
35	2673	truth_conditions	bare	shells	generic	21	green	15	False	moxes
35	5011	truth_conditions	danger/distinct	feathers	generic	22	gold	5	False	plovs
35	3495	truth_conditions	nondistinctive	tails	generic	23	green	45	True	trufts
35	2345	truth_conditions	nondistinctive	spots	generic	24	gold	45	True	stups
35	2198	truth_conditions	bare	legs	generic	25	yellow	45	True	ludinos
35	2865	truth_conditions	danger/distinct	teeth	generic	26	green	25	False	zoovs
35	2733	truth_conditions	bare	stripes	generic	27	gold	25	False	daiths
35	5285	truth_conditions	danger/distinct	spots	generic	28	red	35	False	sapers
35	2106	truth_conditions	danger/distinct	stripes	generic	29	copper	35	False	mooks
36	22246	truth_conditions	nondistinctive	teeth	generic	0	blue	35	True	thups
36	8985	truth_conditions	nondistinctive	feathers	generic	1	red	5	True	noobs
36	6696	truth_conditions	danger/distinct	tails	generic	2	purple	15	True	taifels
36	4885	truth_conditions	bare	fur	generic	3	silver	35	True	morseths
36	2586	truth_conditions	bare	stripes	generic	4	gold	35	True	daiths
36	4597	truth_conditions	danger/distinct	spots	generic	5	red	45	True	sapers
36	3168	truth_conditions	nondistinctive	spots	generic	6	gold	25	True	stups
36	8901	truth_conditions	nondistinctive	legs	generic	7	pink	15	False	feps
36	2098	truth_conditions	bare	teeth	generic	8	pink	5	False	krivels
36	3150	truth_conditions	bare	shells	generic	9	green	25	False	moxes
36	3052	truth_conditions	nondistinctive	scales	generic	10	yellow	35	False	dorbs
36	4666	truth_conditions	danger/distinct	feathers	generic	11	gold	5	False	plovs
36	5984	truth_conditions	danger/distinct	legs	generic	12	silver	45	True	ackles
36	1833	truth_conditions	danger/distinct	teeth	generic	13	green	35	False	zoovs
36	5033	truth_conditions	bare	ears	generic	14	blue	45	True	cheebas
36	2700	truth_conditions	danger/distinct	fur	generic	15	yellow	15	False	ollers
36	4003	truth_conditions	danger/distinct	shells	generic	16	orange	5	False	luzaks
36	4663	truth_conditions	danger/distinct	scales	generic	17	blue	25	False	reesles
36	1718	truth_conditions	bare	scales	generic	18	red	45	True	blins
36	2049	truth_conditions	nondistinctive	ears	generic	19	orange	15	False	kazzes
36	2448	truth_conditions	bare	tails	generic	20	orange	5	False	zorbs
36	1502	truth_conditions	bare	feathers	generic	21	purple	15	False	lorches
36	4099	truth_conditions	nondistinctive	fur	generic	22	copper	5	False	kweps
36	4750	truth_conditions	nondistinctive	shells	generic	23	purple	45	True	javs
36	1832	truth_conditions	danger/distinct	ears	generic	24	pink	25	False	elleps
36	3451	truth_conditions	nondistinctive	stripes	generic	25	silver	25	False	frams
36	3668	truth_conditions	nondistinctive	tails	generic	26	green	45	False	trufts
36	3248	truth_conditions	bare	legs	generic	27	yellow	15	False	ludinos
36	9353	truth_conditions	danger/distinct	stripes	generic	28	copper	35	False	mooks
36	4048	truth_conditions	bare	spots	generic	29	copper	25	False	glippets
37	14723	truth_conditions	bare	feathers	generic	0	purple	15	True	lorches
37	69115	truth_conditions	nondistinctive	feathers	generic	1	red	15	True	noobs
37	47215	truth_conditions	danger/distinct	shells	generic	2	orange	45	True	luzaks
37	55583	truth_conditions	danger/distinct	stripes	generic	3	copper	15	True	mooks
37	23034	truth_conditions	bare	spots	generic	4	copper	35	True	glippets
37	15918	truth_conditions	bare	shells	generic	5	green	45	True	moxes
37	25707	truth_conditions	bare	tails	generic	6	orange	45	True	zorbs
37	39277	truth_conditions	danger/distinct	ears	generic	7	pink	25	True	elleps
37	53449	truth_conditions	danger/distinct	fur	generic	8	yellow	5	True	ollers
37	19069	truth_conditions	bare	legs	generic	9	yellow	25	True	ludinos
37	27633	truth_conditions	danger/distinct	tails	generic	10	purple	35	True	taifels
37	36793	truth_conditions	danger/distinct	spots	generic	11	red	25	True	sapers
37	33483	truth_conditions	nondistinctive	spots	generic	12	gold	5	True	stups
37	16641	truth_conditions	nondistinctive	scales	generic	13	yellow	45	True	dorbs
37	25432	truth_conditions	nondistinctive	teeth	generic	14	blue	25	True	thups
37	21001	truth_conditions	nondistinctive	fur	generic	15	copper	25	True	kweps
37	5364	truth_conditions	bare	teeth	generic	16	pink	15	True	krivels
37	17859	truth_conditions	danger/distinct	feathers	generic	17	gold	15	True	plovs
37	14422	truth_conditions	nondistinctive	legs	generic	18	pink	35	True	feps
37	6243	truth_conditions	bare	fur	generic	19	silver	5	True	morseths
37	22045	truth_conditions	nondistinctive	ears	generic	20	orange	45	True	kazzes
37	11183	truth_conditions	danger/distinct	scales	generic	21	blue	5	True	reesles
37	23513	truth_conditions	nondistinctive	stripes	generic	22	silver	35	True	frams
37	9027	truth_conditions	danger/distinct	teeth	generic	23	green	35	True	zoovs
37	11831	truth_conditions	nondistinctive	tails	generic	24	green	15	True	trufts
37	5296	truth_conditions	bare	ears	generic	25	blue	35	True	cheebas
37	5779	truth_conditions	bare	stripes	generic	26	gold	5	True	daiths
37	11061	truth_conditions	nondistinctive	shells	generic	27	purple	5	True	javs
37	7021	truth_conditions	bare	scales	generic	28	red	25	True	blins
37	8465	truth_conditions	danger/distinct	legs	generic	29	silver	45	True	ackles
38	4367	truth_conditions	bare	scales	generic	0	red	5	True	blins
38	9229	truth_conditions	nondistinctive	stripes	generic	1	silver	45	False	frams
38	1194084	truth_conditions	danger/distinct	spots	generic	2	red	5	False	sapers
38	11286	truth_conditions	nondistinctive	scales	generic	3	yellow	5	False	dorbs
38	29448	truth_conditions	bare	shells	generic	4	green	35	False	moxes
38	2900	truth_conditions	bare	tails	generic	5	orange	45	False	zorbs
38	1583	truth_conditions	nondistinctive	tails	generic	6	green	25	False	trufts
38	1368	truth_conditions	nondistinctive	spots	generic	7	gold	35	False	stups
38	2347	truth_conditions	nondistinctive	legs	generic	8	pink	35	False	feps
38	4003	truth_conditions	danger/distinct	legs	generic	9	silver	25	False	ackles
38	1515	truth_conditions	bare	ears	generic	10	blue	15	False	cheebas
38	1034	truth_conditions	danger/distinct	scales	generic	11	blue	35	False	reesles
38	1368	truth_conditions	bare	teeth	generic	12	pink	15	False	krivels
38	1350	truth_conditions	nondistinctive	ears	generic	13	orange	15	False	kazzes
38	1017	truth_conditions	bare	spots	generic	14	copper	35	False	glippets
38	999	truth_conditions	danger/distinct	shells	generic	15	orange	25	False	luzaks
38	2898	truth_conditions	danger/distinct	feathers	generic	16	gold	45	False	plovs
38	1237	truth_conditions	danger/distinct	stripes	generic	17	copper	5	False	mooks
38	2065	truth_conditions	bare	stripes	generic	18	gold	5	False	daiths
38	1733	truth_conditions	danger/distinct	teeth	generic	19	green	45	False	zoovs
38	1252	truth_conditions	bare	legs	generic	20	yellow	45	False	ludinos
38	1249	truth_conditions	danger/distinct	ears	generic	21	pink	15	False	elleps
38	1136	truth_conditions	nondistinctive	feathers	generic	22	red	15	False	noobs
38	1384	truth_conditions	danger/distinct	fur	generic	23	yellow	15	False	ollers
38	1431	truth_conditions	bare	fur	generic	24	silver	25	False	morseths
38	1515	truth_conditions	nondistinctive	fur	generic	25	copper	45	False	kweps
38	1518	truth_conditions	bare	feathers	generic	26	purple	25	False	lorches
38	1165	truth_conditions	danger/distinct	tails	generic	27	purple	35	False	taifels
38	1150	truth_conditions	nondistinctive	shells	generic	28	purple	5	False	javs
38	1103	truth_conditions	nondistinctive	teeth	generic	29	blue	25	False	thups
39	30288	truth_conditions	nondistinctive	fur	generic	0	copper	5	True	kweps
39	33450	truth_conditions	nondistinctive	feathers	generic	1	red	15	True	noobs
39	32548	truth_conditions	danger/distinct	scales	generic	2	blue	45	True	reesles
39	22130	truth_conditions	bare	scales	generic	3	red	35	True	blins
39	31950	truth_conditions	danger/distinct	teeth	generic	4	green	45	True	zoovs
39	20453	truth_conditions	danger/distinct	stripes	generic	5	copper	35	True	mooks
39	8269	truth_conditions	bare	feathers	generic	6	purple	25	True	lorches
39	43633	truth_conditions	nondistinctive	scales	generic	7	yellow	15	False	dorbs
39	16368	truth_conditions	nondistinctive	teeth	generic	8	blue	5	False	thups
39	29982	truth_conditions	danger/distinct	ears	generic	9	pink	5	True	elleps
39	18503	truth_conditions	bare	legs	generic	10	yellow	25	False	ludinos
39	9656	truth_conditions	danger/distinct	legs	generic	11	silver	35	True	ackles
39	9866	truth_conditions	bare	spots	generic	12	copper	5	False	glippets
39	9481	truth_conditions	bare	shells	generic	13	green	35	False	moxes
39	29501	truth_conditions	nondistinctive	tails	generic	14	green	25	False	trufts
39	19184	truth_conditions	bare	fur	generic	15	silver	15	False	morseths
39	15728	truth_conditions	danger/distinct	spots	generic	16	red	5	True	sapers
39	47085	truth_conditions	bare	tails	generic	17	orange	45	True	zorbs
39	16422	truth_conditions	danger/distinct	tails	generic	18	purple	25	True	taifels
39	7854	truth_conditions	bare	ears	generic	19	blue	45	True	cheebas
39	11725	truth_conditions	danger/distinct	fur	generic	20	yellow	25	True	ollers
39	8443	truth_conditions	nondistinctive	shells	generic	21	purple	25	False	javs
39	16570	truth_conditions	nondistinctive	ears	generic	22	orange	35	True	kazzes
39	19434	truth_conditions	danger/distinct	feathers	generic	23	gold	15	True	plovs
39	10568	truth_conditions	danger/distinct	shells	generic	24	orange	15	True	luzaks
39	3699	truth_conditions	bare	teeth	generic	25	pink	5	False	krivels
39	15670	truth_conditions	nondistinctive	stripes	generic	26	silver	45	True	frams
39	7172	truth_conditions	bare	stripes	generic	27	gold	15	False	daiths
39	13071	truth_conditions	nondistinctive	legs	generic	28	pink	35	True	feps
39	19151	truth_conditions	nondistinctive	spots	generic	29	gold	45	True	stups