workerid	rt	trial_type	stim_type	trial_num	stim_determiner	trialNum	stim_color	stim_prevalence	stim_part	response	stim_category
0	17094	implied_prevalence	irrelevant	0	some	NA	red	NA	feathers	30	noobs
0	23318	implied_prevalence	distinct	1	some	NA	red	NA	spots	30	sapers
0	7169	implied_prevalence	irrelevant	2	some	NA	orange	NA	ears	30	kazzes
0	31624	implied_prevalence	danger	3	some	NA	yellow	NA	legs	30	ludinos
0	5465	implied_prevalence	irrelevant	4	some	NA	pink	NA	legs	30	feps
0	6526	implied_prevalence	irrelevant	5	some	NA	copper	NA	fur	30	kweps
0	6678	implied_prevalence	danger	6	some	NA	green	NA	shells	30	moxes
0	7863	implied_prevalence	danger	7	some	NA	blue	NA	ears	30	cheebas
0	9384	implied_prevalence	danger	8	some	NA	copper	NA	spots	30	glippets
0	7753	implied_prevalence	distinct	9	some	NA	gold	NA	feathers	30	plovs
0	6921	implied_prevalence	distinct	10	some	NA	blue	NA	scales	30	reesles
0	7141	implied_prevalence	irrelevant	11	some	NA	blue	NA	teeth	30	thups
0	4512	implied_prevalence	distinct	12	some	NA	green	NA	teeth	30	zoovs
0	5584	implied_prevalence	irrelevant	13	some	NA	yellow	NA	scales	30	dorbs
0	8080	implied_prevalence	danger	14	some	NA	silver	NA	fur	30	morseths
0	19037	implied_prevalence	distinct	15	some	NA	pink	NA	ears	30	elleps
0	3458	implied_prevalence	distinct	16	some	NA	silver	NA	legs	30	ackles
0	3598	implied_prevalence	danger	17	some	NA	red	NA	scales	30	blins
0	7182	implied_prevalence	danger	18	some	NA	orange	NA	tails	30	zorbs
0	5409	implied_prevalence	distinct	19	some	NA	purple	NA	tails	30	taifels
0	6784	implied_prevalence	danger	20	some	NA	gold	NA	stripes	30	daiths
0	9465	implied_prevalence	distinct	21	some	NA	copper	NA	stripes	30	mooks
0	6854	implied_prevalence	distinct	22	some	NA	orange	NA	shells	30	luzaks
0	9943	implied_prevalence	irrelevant	23	some	NA	green	NA	tails	30	trufts
0	4528	implied_prevalence	irrelevant	24	some	NA	silver	NA	stripes	30	frams
0	6958	implied_prevalence	danger	25	some	NA	pink	NA	teeth	30	krivels
0	6201	implied_prevalence	irrelevant	26	some	NA	purple	NA	shells	30	javs
0	6498	implied_prevalence	distinct	27	some	NA	yellow	NA	fur	30	ollers
0	6851	implied_prevalence	danger	28	some	NA	purple	NA	feathers	30	lorches
0	6755	implied_prevalence	irrelevant	29	some	NA	gold	NA	spots	30	stups
1	12184	truth_conditions	danger	NA	most	0	copper	70	spots	True	glippets
1	8181	truth_conditions	distinct	NA	most	1	pink	70	ears	True	elleps
1	5841	truth_conditions	danger	NA	most	2	orange	90	tails	True	zorbs
1	3663	truth_conditions	distinct	NA	most	3	green	10	teeth	False	zoovs
1	31819	truth_conditions	irrelevant	NA	most	4	gold	50	spots	False	stups
1	6350	truth_conditions	irrelevant	NA	most	5	pink	10	legs	False	feps
1	8829	truth_conditions	irrelevant	NA	most	6	orange	30	ears	False	kazzes
1	7921	truth_conditions	irrelevant	NA	most	7	green	90	tails	True	trufts
1	3654	truth_conditions	danger	NA	most	8	silver	30	fur	False	morseths
1	2958	truth_conditions	distinct	NA	most	9	silver	50	legs	False	ackles
1	3814	truth_conditions	danger	NA	most	10	purple	10	feathers	False	lorches
1	3743	truth_conditions	danger	NA	most	11	blue	10	ears	False	cheebas
1	3272	truth_conditions	distinct	NA	most	12	yellow	30	fur	False	ollers
1	2944	truth_conditions	danger	NA	most	13	pink	90	teeth	True	krivels
1	2977	truth_conditions	irrelevant	NA	most	14	blue	10	teeth	False	thups
1	2967	truth_conditions	distinct	NA	most	15	red	90	spots	True	sapers
1	3359	truth_conditions	irrelevant	NA	most	16	yellow	70	scales	True	dorbs
1	2803	truth_conditions	danger	NA	most	17	yellow	30	legs	False	ludinos
1	3233	truth_conditions	danger	NA	most	18	green	50	shells	False	moxes
1	3405	truth_conditions	distinct	NA	most	19	purple	10	tails	False	taifels
1	4332	truth_conditions	distinct	NA	most	20	copper	50	stripes	False	mooks
1	3654	truth_conditions	irrelevant	NA	most	21	copper	70	fur	True	kweps
1	2422	truth_conditions	danger	NA	most	22	gold	50	stripes	False	daiths
1	3201	truth_conditions	irrelevant	NA	most	23	purple	90	shells	True	javs
1	4778	truth_conditions	distinct	NA	most	24	blue	30	scales	False	reesles
1	8885	truth_conditions	danger	NA	most	25	red	70	scales	True	blins
1	2341	truth_conditions	distinct	NA	most	26	gold	90	feathers	True	plovs
1	10274	truth_conditions	distinct	NA	most	27	orange	70	shells	True	luzaks
1	8688	truth_conditions	irrelevant	NA	most	28	red	30	feathers	False	noobs
1	2734	truth_conditions	irrelevant	NA	most	29	silver	50	stripes	False	frams
2	18208	implied_prevalence	distinct	0	generic	NA	orange	NA	shells	100	luzaks
2	10479	implied_prevalence	distinct	1	generic	NA	blue	NA	scales	100	reesles
2	9053	implied_prevalence	distinct	2	generic	NA	red	NA	spots	100	sapers
2	9299	implied_prevalence	distinct	3	generic	NA	green	NA	teeth	100	zoovs
2	7725	implied_prevalence	irrelevant	4	generic	NA	blue	NA	teeth	100	thups
2	8031	implied_prevalence	danger	5	generic	NA	silver	NA	fur	100	morseths
2	6337	implied_prevalence	distinct	6	generic	NA	copper	NA	stripes	100	mooks
2	3743	implied_prevalence	danger	7	generic	NA	blue	NA	ears	100	cheebas
2	5086	implied_prevalence	irrelevant	8	generic	NA	pink	NA	legs	100	feps
2	3704	implied_prevalence	irrelevant	9	generic	NA	copper	NA	fur	100	kweps
2	7129	implied_prevalence	irrelevant	10	generic	NA	red	NA	feathers	100	noobs
2	3983	implied_prevalence	irrelevant	11	generic	NA	gold	NA	spots	100	stups
2	6735	implied_prevalence	danger	12	generic	NA	green	NA	shells	100	moxes
2	7365	implied_prevalence	danger	13	generic	NA	gold	NA	stripes	100	daiths
2	3816	implied_prevalence	distinct	14	generic	NA	gold	NA	feathers	100	plovs
2	3600	implied_prevalence	danger	15	generic	NA	purple	NA	feathers	100	lorches
2	2607	implied_prevalence	irrelevant	16	generic	NA	orange	NA	ears	100	kazzes
2	2464	implied_prevalence	irrelevant	17	generic	NA	purple	NA	shells	100	javs
2	4158	implied_prevalence	danger	18	generic	NA	orange	NA	tails	100	zorbs
2	4345	implied_prevalence	irrelevant	19	generic	NA	green	NA	tails	100	trufts
2	2646	implied_prevalence	irrelevant	20	generic	NA	yellow	NA	scales	100	dorbs
2	2840	implied_prevalence	distinct	21	generic	NA	pink	NA	ears	100	elleps
2	2829	implied_prevalence	danger	22	generic	NA	red	NA	scales	100	blins
2	2779	implied_prevalence	distinct	23	generic	NA	purple	NA	tails	100	taifels
2	5873	implied_prevalence	distinct	24	generic	NA	yellow	NA	fur	100	ollers
2	3308	implied_prevalence	distinct	25	generic	NA	silver	NA	legs	100	ackles
2	2130	implied_prevalence	danger	26	generic	NA	pink	NA	teeth	100	krivels
2	2422	implied_prevalence	danger	27	generic	NA	yellow	NA	legs	100	ludinos
2	2265	implied_prevalence	danger	28	generic	NA	copper	NA	spots	100	glippets
2	2958	implied_prevalence	irrelevant	29	generic	NA	silver	NA	stripes	100	frams
3	7629	implied_prevalence	irrelevant	0	generic	NA	blue	NA	teeth	90	thups
3	20239	implied_prevalence	irrelevant	1	generic	NA	red	NA	feathers	90	noobs
3	11244	implied_prevalence	distinct	2	generic	NA	silver	NA	legs	95	ackles
3	16152	implied_prevalence	irrelevant	3	generic	NA	orange	NA	ears	90	kazzes
3	23458	implied_prevalence	danger	4	generic	NA	blue	NA	ears	90	cheebas
3	19454	implied_prevalence	danger	5	generic	NA	purple	NA	feathers	90	lorches
3	8113	implied_prevalence	distinct	6	generic	NA	orange	NA	shells	95	luzaks
3	8062	implied_prevalence	danger	7	generic	NA	red	NA	scales	95	blins
3	7503	implied_prevalence	irrelevant	8	generic	NA	gold	NA	spots	90	stups
3	23289	implied_prevalence	irrelevant	9	generic	NA	pink	NA	legs	90	feps
3	4836	implied_prevalence	distinct	10	generic	NA	blue	NA	scales	95	reesles
3	5569	implied_prevalence	danger	11	generic	NA	silver	NA	fur	95	morseths
3	5331	implied_prevalence	distinct	12	generic	NA	yellow	NA	fur	95	ollers
3	4131	implied_prevalence	distinct	13	generic	NA	copper	NA	stripes	95	mooks
3	5415	implied_prevalence	danger	14	generic	NA	orange	NA	tails	95	zorbs
3	6203	implied_prevalence	irrelevant	15	generic	NA	copper	NA	fur	90	kweps
3	5560	implied_prevalence	danger	16	generic	NA	green	NA	shells	95	moxes
3	5846	implied_prevalence	irrelevant	17	generic	NA	silver	NA	stripes	90	frams
3	5214	implied_prevalence	danger	18	generic	NA	copper	NA	spots	95	glippets
3	6573	implied_prevalence	distinct	19	generic	NA	pink	NA	ears	95	elleps
3	20883	implied_prevalence	irrelevant	20	generic	NA	yellow	NA	scales	90	dorbs
3	3727	implied_prevalence	distinct	21	generic	NA	gold	NA	feathers	95	plovs
3	5250	implied_prevalence	irrelevant	22	generic	NA	purple	NA	shells	90	javs
3	4040	implied_prevalence	distinct	23	generic	NA	red	NA	spots	95	sapers
3	5660	implied_prevalence	danger	24	generic	NA	pink	NA	teeth	95	krivels
3	7183	implied_prevalence	irrelevant	25	generic	NA	green	NA	tails	90	trufts
3	4942	implied_prevalence	distinct	26	generic	NA	green	NA	teeth	95	zoovs
3	6081	implied_prevalence	distinct	27	generic	NA	purple	NA	tails	95	taifels
3	4402	implied_prevalence	danger	28	generic	NA	yellow	NA	legs	95	ludinos
3	5862	implied_prevalence	danger	29	generic	NA	gold	NA	stripes	95	daiths
4	16321	implied_prevalence	danger	0	generic	NA	silver	NA	fur	100	morseths
4	9086	implied_prevalence	danger	1	generic	NA	orange	NA	tails	100	zorbs
4	11250	implied_prevalence	danger	2	generic	NA	purple	NA	feathers	100	lorches
4	11573	implied_prevalence	irrelevant	3	generic	NA	purple	NA	shells	100	javs
4	10883	implied_prevalence	distinct	4	generic	NA	red	NA	spots	100	sapers
4	32739	implied_prevalence	irrelevant	5	generic	NA	orange	NA	ears	100	kazzes
4	28770	implied_prevalence	distinct	6	generic	NA	yellow	NA	fur	100	ollers
4	17356	implied_prevalence	danger	7	generic	NA	copper	NA	spots	100	glippets
4	23995	implied_prevalence	danger	8	generic	NA	green	NA	shells	100	moxes
4	16140	implied_prevalence	irrelevant	9	generic	NA	yellow	NA	scales	95	dorbs
4	7654	implied_prevalence	irrelevant	10	generic	NA	silver	NA	stripes	95	frams
4	6604	implied_prevalence	irrelevant	11	generic	NA	blue	NA	teeth	100	thups
4	47959	implied_prevalence	irrelevant	12	generic	NA	gold	NA	spots	100	stups
4	4966	implied_prevalence	danger	13	generic	NA	red	NA	scales	100	blins
4	6725	implied_prevalence	irrelevant	14	generic	NA	copper	NA	fur	95	kweps
4	6664	implied_prevalence	distinct	15	generic	NA	copper	NA	stripes	100	mooks
4	7660	implied_prevalence	danger	16	generic	NA	gold	NA	stripes	100	daiths
4	6513	implied_prevalence	distinct	17	generic	NA	orange	NA	shells	95	luzaks
4	4506	implied_prevalence	distinct	18	generic	NA	pink	NA	ears	100	elleps
4	5931	implied_prevalence	danger	19	generic	NA	yellow	NA	legs	100	ludinos
4	6280	implied_prevalence	danger	20	generic	NA	pink	NA	teeth	100	krivels
4	7585	implied_prevalence	danger	21	generic	NA	blue	NA	ears	100	cheebas
4	5148	implied_prevalence	distinct	22	generic	NA	silver	NA	legs	95	ackles
4	5097	implied_prevalence	distinct	23	generic	NA	green	NA	teeth	95	zoovs
4	10606	implied_prevalence	irrelevant	24	generic	NA	green	NA	tails	95	trufts
4	5365	implied_prevalence	distinct	25	generic	NA	gold	NA	feathers	100	plovs
4	4630	implied_prevalence	distinct	26	generic	NA	blue	NA	scales	100	reesles
4	6255	implied_prevalence	irrelevant	27	generic	NA	pink	NA	legs	95	feps
4	21939	implied_prevalence	distinct	28	generic	NA	purple	NA	tails	95	taifels
4	9642	implied_prevalence	irrelevant	29	generic	NA	red	NA	feathers	100	noobs
5	17492	truth_conditions	distinct	NA	most	0	purple	50	tails	False	taifels
5	20190	truth_conditions	distinct	NA	most	1	pink	70	ears	False	elleps
5	13898	truth_conditions	danger	NA	most	2	red	50	scales	False	blins
5	17006	truth_conditions	irrelevant	NA	most	3	yellow	30	scales	False	dorbs
5	34606	truth_conditions	danger	NA	most	4	yellow	30	legs	False	ludinos
5	12844	truth_conditions	danger	NA	most	5	gold	10	stripes	False	daiths
5	16091	truth_conditions	irrelevant	NA	most	6	copper	90	fur	True	kweps
5	38243	truth_conditions	distinct	NA	most	7	copper	30	stripes	False	mooks
5	9392	truth_conditions	distinct	NA	most	8	silver	50	legs	False	ackles
5	2389	truth_conditions	irrelevant	NA	most	9	green	70	tails	True	trufts
5	5156	truth_conditions	distinct	NA	most	10	yellow	90	fur	True	ollers
5	35519	truth_conditions	irrelevant	NA	most	11	silver	70	stripes	True	frams
5	22593	truth_conditions	danger	NA	most	12	silver	50	fur	False	morseths
5	87429	truth_conditions	danger	NA	most	13	copper	70	spots	True	glippets
5	37134	truth_conditions	irrelevant	NA	most	14	orange	10	ears	False	kazzes
5	12109	truth_conditions	danger	NA	most	15	purple	30	feathers	False	lorches
5	6577	truth_conditions	distinct	NA	most	16	gold	70	feathers	True	plovs
5	3742	truth_conditions	danger	NA	most	17	pink	90	teeth	True	krivels
5	8725	truth_conditions	danger	NA	most	18	orange	70	tails	True	zorbs
5	9047	truth_conditions	irrelevant	NA	most	19	red	30	feathers	False	noobs
5	4779	truth_conditions	distinct	NA	most	20	orange	90	shells	True	luzaks
5	15547	truth_conditions	irrelevant	NA	most	21	purple	50	shells	False	javs
5	2686	truth_conditions	distinct	NA	most	22	red	10	spots	False	sapers
5	2540	truth_conditions	distinct	NA	most	23	green	10	teeth	False	zoovs
5	2954	truth_conditions	irrelevant	NA	most	24	pink	50	legs	False	feps
5	4249	truth_conditions	distinct	NA	most	25	blue	30	scales	False	reesles
5	2771	truth_conditions	danger	NA	most	26	blue	90	ears	True	cheebas
5	4351	truth_conditions	danger	NA	most	27	green	10	shells	False	moxes
5	3085	truth_conditions	irrelevant	NA	most	28	blue	10	teeth	False	thups
5	2233	truth_conditions	irrelevant	NA	most	29	gold	90	spots	True	stups
6	52145	truth_conditions	distinct	NA	some	0	green	90	teeth	False	zoovs
6	43888	truth_conditions	danger	NA	some	1	pink	10	teeth	True	krivels
6	14535	truth_conditions	irrelevant	NA	some	2	purple	30	shells	False	javs
6	16690	truth_conditions	distinct	NA	some	3	pink	10	ears	False	elleps
6	11903	truth_conditions	irrelevant	NA	some	4	orange	50	ears	False	kazzes
6	15630	truth_conditions	danger	NA	some	5	silver	70	fur	True	morseths
6	8404	truth_conditions	irrelevant	NA	some	6	green	30	tails	True	trufts
6	9128	truth_conditions	distinct	NA	some	7	silver	10	legs	False	ackles
6	5564	truth_conditions	danger	NA	some	8	gold	70	stripes	True	daiths
6	4355	truth_conditions	distinct	NA	some	9	yellow	30	fur	True	ollers
6	4500	truth_conditions	irrelevant	NA	some	10	silver	50	stripes	True	frams
6	3790	truth_conditions	danger	NA	some	11	copper	30	spots	False	glippets
6	2680	truth_conditions	irrelevant	NA	some	12	red	70	feathers	True	noobs
6	4304	truth_conditions	danger	NA	some	13	orange	90	tails	True	zorbs
6	3680	truth_conditions	distinct	NA	some	14	blue	50	scales	True	reesles
6	6272	truth_conditions	danger	NA	some	15	yellow	50	legs	True	ludinos
6	2955	truth_conditions	irrelevant	NA	some	16	gold	90	spots	True	stups
6	16207	truth_conditions	irrelevant	NA	some	17	copper	90	fur	True	kweps
6	14128	truth_conditions	distinct	NA	some	18	gold	30	feathers	False	plovs
6	7629	truth_conditions	distinct	NA	some	19	purple	70	tails	True	taifels
6	6743	truth_conditions	irrelevant	NA	some	20	yellow	10	scales	False	dorbs
6	3145	truth_conditions	distinct	NA	some	21	orange	70	shells	True	luzaks
6	7390	truth_conditions	danger	NA	some	22	red	30	scales	False	blins
6	3175	truth_conditions	distinct	NA	some	23	red	90	spots	True	sapers
6	8548	truth_conditions	danger	NA	some	24	purple	10	feathers	False	lorches
6	3082	truth_conditions	danger	NA	some	25	blue	90	ears	True	cheebas
6	5356	truth_conditions	distinct	NA	some	26	copper	50	stripes	True	mooks
6	5547	truth_conditions	irrelevant	NA	some	27	pink	10	legs	False	feps
6	29953	truth_conditions	irrelevant	NA	some	28	blue	70	teeth	True	thups
6	3644	truth_conditions	danger	NA	some	29	green	50	shells	True	moxes
7	18053	implied_prevalence	danger	0	most	NA	red	NA	scales	51	blins
7	29357	implied_prevalence	distinct	1	most	NA	blue	NA	scales	34	reesles
7	23084	implied_prevalence	irrelevant	2	most	NA	purple	NA	shells	51	javs
7	29901	implied_prevalence	irrelevant	3	most	NA	red	NA	feathers	34	noobs
7	21625	implied_prevalence	danger	4	most	NA	copper	NA	spots	60	glippets
7	12869	implied_prevalence	distinct	5	most	NA	red	NA	spots	80	sapers
7	14556	implied_prevalence	irrelevant	6	most	NA	blue	NA	teeth	80	thups
7	16214	implied_prevalence	distinct	7	most	NA	silver	NA	legs	90	ackles
7	33590	implied_prevalence	distinct	8	most	NA	orange	NA	shells	60	luzaks
7	15053	implied_prevalence	danger	9	most	NA	pink	NA	teeth	65	krivels
7	14634	implied_prevalence	irrelevant	10	most	NA	orange	NA	ears	60	kazzes
7	12536	implied_prevalence	irrelevant	11	most	NA	yellow	NA	scales	70	dorbs
7	15836	implied_prevalence	danger	12	most	NA	green	NA	shells	60	moxes
7	13110	implied_prevalence	distinct	13	most	NA	pink	NA	ears	51	elleps
7	17988	implied_prevalence	danger	14	most	NA	purple	NA	feathers	70	lorches
7	13380	implied_prevalence	distinct	15	most	NA	purple	NA	tails	80	taifels
7	24522	implied_prevalence	distinct	16	most	NA	green	NA	teeth	60	zoovs
7	11446	implied_prevalence	danger	17	most	NA	gold	NA	stripes	90	daiths
7	10684	implied_prevalence	irrelevant	18	most	NA	pink	NA	legs	51	feps
7	7933	implied_prevalence	irrelevant	19	most	NA	gold	NA	spots	80	stups
7	8035	implied_prevalence	irrelevant	20	most	NA	copper	NA	fur	60	kweps
7	18510	implied_prevalence	distinct	21	most	NA	yellow	NA	fur	53	ollers
7	9208	implied_prevalence	danger	22	most	NA	yellow	NA	legs	75	ludinos
7	14944	implied_prevalence	irrelevant	23	most	NA	green	NA	tails	60	trufts
7	6863	implied_prevalence	distinct	24	most	NA	copper	NA	stripes	60	mooks
7	8202	implied_prevalence	danger	25	most	NA	silver	NA	fur	70	morseths
7	9749	implied_prevalence	irrelevant	26	most	NA	silver	NA	stripes	80	frams
7	9909	implied_prevalence	danger	27	most	NA	blue	NA	ears	76	cheebas
7	7395	implied_prevalence	danger	28	most	NA	orange	NA	tails	76	zorbs
7	6894	implied_prevalence	distinct	29	most	NA	gold	NA	feathers	70	plovs
8	8111	truth_conditions	irrelevant	NA	generic	0	green	70	tails	True	trufts
8	14268	truth_conditions	distinct	NA	generic	1	yellow	10	fur	True	ollers
8	4695	truth_conditions	distinct	NA	generic	2	silver	50	legs	True	ackles
8	3832	truth_conditions	irrelevant	NA	generic	3	orange	50	ears	True	kazzes
8	3183	truth_conditions	irrelevant	NA	generic	4	copper	10	fur	True	kweps
8	3871	truth_conditions	irrelevant	NA	generic	5	purple	90	shells	True	javs
8	4040	truth_conditions	irrelevant	NA	generic	6	gold	10	spots	True	stups
8	4024	truth_conditions	irrelevant	NA	generic	7	red	50	feathers	True	noobs
8	2928	truth_conditions	distinct	NA	generic	8	pink	30	ears	True	elleps
8	4384	truth_conditions	distinct	NA	generic	9	copper	70	stripes	True	mooks
8	3152	truth_conditions	danger	NA	generic	10	blue	30	ears	True	cheebas
8	4096	truth_conditions	danger	NA	generic	11	gold	50	stripes	True	daiths
8	3360	truth_conditions	irrelevant	NA	generic	12	yellow	70	scales	True	dorbs
8	3719	truth_conditions	danger	NA	generic	13	silver	90	fur	True	morseths
8	4767	truth_conditions	irrelevant	NA	generic	14	silver	30	stripes	True	frams
8	4063	truth_conditions	distinct	NA	generic	15	purple	90	tails	True	taifels
8	2144	truth_conditions	distinct	NA	generic	16	blue	50	scales	True	reesles
8	2544	truth_conditions	irrelevant	NA	generic	17	blue	30	teeth	True	thups
8	2911	truth_conditions	irrelevant	NA	generic	18	pink	90	legs	True	feps
8	3112	truth_conditions	distinct	NA	generic	19	green	10	teeth	True	zoovs
8	3032	truth_conditions	distinct	NA	generic	20	orange	30	shells	True	luzaks
8	3384	truth_conditions	danger	NA	generic	21	yellow	50	legs	True	ludinos
8	2791	truth_conditions	distinct	NA	generic	22	gold	70	feathers	True	plovs
8	2568	truth_conditions	danger	NA	generic	23	orange	10	tails	True	zorbs
8	2737	truth_conditions	danger	NA	generic	24	red	10	scales	True	blins
8	2255	truth_conditions	danger	NA	generic	25	purple	90	feathers	True	lorches
8	3016	truth_conditions	distinct	NA	generic	26	red	90	spots	True	sapers
8	4823	truth_conditions	danger	NA	generic	27	green	30	shells	True	moxes
8	4135	truth_conditions	danger	NA	generic	28	pink	70	teeth	True	krivels
8	2927	truth_conditions	danger	NA	generic	29	copper	70	spots	True	glippets
9	4102	implied_prevalence	irrelevant	0	most	NA	red	NA	feathers	30	noobs
9	76575	implied_prevalence	irrelevant	1	most	NA	blue	NA	teeth	60	thups
9	2251	implied_prevalence	distinct	2	most	NA	green	NA	teeth	50	zoovs
9	1743	implied_prevalence	danger	3	most	NA	red	NA	scales	70	blins
9	2057	implied_prevalence	danger	4	most	NA	pink	NA	teeth	55	krivels
9	2428	implied_prevalence	distinct	5	most	NA	pink	NA	ears	49	elleps
9	2751	implied_prevalence	danger	6	most	NA	orange	NA	tails	54	zorbs
9	2647	implied_prevalence	distinct	7	most	NA	copper	NA	stripes	87	mooks
9	2159	implied_prevalence	danger	8	most	NA	silver	NA	fur	67	morseths
9	3393	implied_prevalence	distinct	9	most	NA	silver	NA	legs	78	ackles
9	2988	implied_prevalence	distinct	10	most	NA	blue	NA	scales	67	reesles
9	2823	implied_prevalence	distinct	11	most	NA	red	NA	spots	98	sapers
9	120481	implied_prevalence	irrelevant	12	most	NA	silver	NA	stripes	67	frams
9	1749	implied_prevalence	irrelevant	13	most	NA	gold	NA	spots	45	stups
9	1726	implied_prevalence	irrelevant	14	most	NA	orange	NA	ears	45	kazzes
9	1839	implied_prevalence	distinct	15	most	NA	gold	NA	feathers	34	plovs
9	1881	implied_prevalence	danger	16	most	NA	purple	NA	feathers	45	lorches
9	1533	implied_prevalence	distinct	17	most	NA	orange	NA	shells	45	luzaks
9	1559	implied_prevalence	danger	18	most	NA	green	NA	shells	67	moxes
9	1519	implied_prevalence	distinct	19	most	NA	yellow	NA	fur	65	ollers
9	1856	implied_prevalence	danger	20	most	NA	gold	NA	stripes	54	daiths
9	2169	implied_prevalence	danger	21	most	NA	copper	NA	spots	34	glippets
9	1963	implied_prevalence	danger	22	most	NA	yellow	NA	legs	34	ludinos
9	2612	implied_prevalence	irrelevant	23	most	NA	yellow	NA	scales	87	dorbs
9	2584	implied_prevalence	irrelevant	24	most	NA	green	NA	tails	65	trufts
9	2320	implied_prevalence	irrelevant	25	most	NA	purple	NA	shells	56	javs
9	2242	implied_prevalence	distinct	26	most	NA	purple	NA	tails	78	taifels
9	2172	implied_prevalence	danger	27	most	NA	blue	NA	ears	98	cheebas
9	2071	implied_prevalence	irrelevant	28	most	NA	copper	NA	fur	65	kweps
9	2328	implied_prevalence	irrelevant	29	most	NA	pink	NA	legs	87	feps
10	15856	truth_conditions	danger	NA	generic	0	green	90	shells	True	moxes
10	16836	truth_conditions	danger	NA	generic	1	pink	10	teeth	True	krivels
10	12476	truth_conditions	irrelevant	NA	generic	2	purple	70	shells	True	javs
10	10400	truth_conditions	irrelevant	NA	generic	3	orange	50	ears	True	kazzes
10	8307	truth_conditions	irrelevant	NA	generic	4	gold	90	spots	True	stups
10	10399	truth_conditions	distinct	NA	generic	5	silver	30	legs	True	ackles
10	11437	truth_conditions	distinct	NA	generic	6	purple	70	tails	True	taifels
10	9996	truth_conditions	distinct	NA	generic	7	green	70	teeth	True	zoovs
10	18446	truth_conditions	danger	NA	generic	8	purple	10	feathers	True	lorches
10	11229	truth_conditions	irrelevant	NA	generic	9	silver	90	stripes	True	frams
10	41259	truth_conditions	danger	NA	generic	10	yellow	70	legs	True	ludinos
10	6708	truth_conditions	distinct	NA	generic	11	blue	10	scales	True	reesles
10	13426	truth_conditions	irrelevant	NA	generic	12	pink	50	legs	True	feps
10	11033	truth_conditions	irrelevant	NA	generic	13	blue	10	teeth	True	thups
10	60069	truth_conditions	distinct	NA	generic	14	red	90	spots	True	sapers
10	11140	truth_conditions	danger	NA	generic	15	copper	30	spots	True	glippets
10	11572	truth_conditions	danger	NA	generic	16	blue	90	ears	True	cheebas
10	8213	truth_conditions	distinct	NA	generic	17	orange	30	shells	True	luzaks
10	10427	truth_conditions	danger	NA	generic	18	gold	50	stripes	True	daiths
10	7803	truth_conditions	irrelevant	NA	generic	19	yellow	70	scales	True	dorbs
10	56291	truth_conditions	distinct	NA	generic	20	pink	10	ears	True	elleps
10	9369	truth_conditions	distinct	NA	generic	21	yellow	90	fur	True	ollers
10	8543	truth_conditions	distinct	NA	generic	22	gold	50	feathers	True	plovs
10	6870	truth_conditions	danger	NA	generic	23	orange	50	tails	True	zorbs
10	11436	truth_conditions	distinct	NA	generic	24	copper	50	stripes	True	mooks
10	12326	truth_conditions	irrelevant	NA	generic	25	red	30	feathers	True	noobs
10	7499	truth_conditions	danger	NA	generic	26	red	30	scales	True	blins
10	8990	truth_conditions	danger	NA	generic	27	silver	70	fur	True	morseths
10	6720	truth_conditions	irrelevant	NA	generic	28	copper	30	fur	True	kweps
10	7976	truth_conditions	irrelevant	NA	generic	29	green	10	tails	True	trufts
11	7949	truth_conditions	irrelevant	NA	generic	0	yellow	90	scales	True	dorbs
11	9994	truth_conditions	danger	NA	generic	1	purple	50	feathers	True	lorches
11	16840	truth_conditions	distinct	NA	generic	2	orange	90	shells	True	luzaks
11	7268	truth_conditions	danger	NA	generic	3	blue	50	ears	True	cheebas
11	19739	truth_conditions	danger	NA	generic	4	gold	10	stripes	True	daiths
11	4742	truth_conditions	danger	NA	generic	5	pink	10	teeth	True	krivels
11	8315	truth_conditions	danger	NA	generic	6	orange	90	tails	True	zorbs
11	6883	truth_conditions	danger	NA	generic	7	copper	90	spots	True	glippets
11	8167	truth_conditions	distinct	NA	generic	8	copper	90	stripes	True	mooks
11	7270	truth_conditions	irrelevant	NA	generic	9	blue	90	teeth	True	thups
11	5612	truth_conditions	distinct	NA	generic	10	silver	70	legs	True	ackles
11	5185	truth_conditions	irrelevant	NA	generic	11	orange	30	ears	False	kazzes
11	5151	truth_conditions	irrelevant	NA	generic	12	pink	10	legs	False	feps
11	5267	truth_conditions	irrelevant	NA	generic	13	gold	50	spots	True	stups
11	4738	truth_conditions	distinct	NA	generic	14	gold	50	feathers	True	plovs
11	6614	truth_conditions	danger	NA	generic	15	silver	70	fur	True	morseths
11	7995	truth_conditions	danger	NA	generic	16	yellow	30	legs	True	ludinos
11	5460	truth_conditions	distinct	NA	generic	17	purple	50	tails	True	taifels
11	5624	truth_conditions	distinct	NA	generic	18	blue	10	scales	False	reesles
11	4431	truth_conditions	irrelevant	NA	generic	19	copper	70	fur	True	kweps
11	7367	truth_conditions	irrelevant	NA	generic	20	purple	70	shells	True	javs
11	4272	truth_conditions	distinct	NA	generic	21	red	10	spots	False	sapers
11	5045	truth_conditions	irrelevant	NA	generic	22	silver	10	stripes	False	frams
11	5601	truth_conditions	danger	NA	generic	23	green	70	shells	True	moxes
11	10490	truth_conditions	distinct	NA	generic	24	pink	30	ears	False	elleps
11	6059	truth_conditions	irrelevant	NA	generic	25	green	30	tails	False	trufts
11	6193	truth_conditions	irrelevant	NA	generic	26	red	50	feathers	True	noobs
11	4358	truth_conditions	distinct	NA	generic	27	green	70	teeth	True	zoovs
11	3515	truth_conditions	distinct	NA	generic	28	yellow	30	fur	False	ollers
11	5150	truth_conditions	danger	NA	generic	29	red	30	scales	True	blins
12	15200	truth_conditions	danger	NA	generic	0	pink	30	teeth	True	krivels
12	11726	truth_conditions	danger	NA	generic	1	orange	10	tails	True	zorbs
12	7839	truth_conditions	irrelevant	NA	generic	2	gold	90	spots	True	stups
12	10353	truth_conditions	danger	NA	generic	3	green	30	shells	True	moxes
12	28352	truth_conditions	distinct	NA	generic	4	yellow	50	fur	True	ollers
12	45425	truth_conditions	danger	NA	generic	5	red	90	scales	True	blins
12	7575	truth_conditions	irrelevant	NA	generic	6	orange	10	ears	True	kazzes
12	98071	truth_conditions	distinct	NA	generic	7	copper	30	stripes	True	mooks
12	12280	truth_conditions	distinct	NA	generic	8	red	30	spots	True	sapers
12	111746	truth_conditions	irrelevant	NA	generic	9	silver	50	stripes	True	frams
12	8799	truth_conditions	danger	NA	generic	10	blue	90	ears	True	cheebas
12	107946	truth_conditions	distinct	NA	generic	11	blue	90	scales	True	reesles
12	3935	truth_conditions	irrelevant	NA	generic	12	red	70	feathers	True	noobs
12	11958	truth_conditions	distinct	NA	generic	13	orange	70	shells	True	luzaks
12	11968	truth_conditions	danger	NA	generic	14	purple	70	feathers	True	lorches
12	15040	truth_conditions	irrelevant	NA	generic	15	green	70	tails	True	trufts
12	27632	truth_conditions	distinct	NA	generic	16	purple	10	tails	True	taifels
12	2719	truth_conditions	distinct	NA	generic	17	green	70	teeth	True	zoovs
12	2481	truth_conditions	irrelevant	NA	generic	18	blue	50	teeth	True	thups
12	2991	truth_conditions	danger	NA	generic	19	copper	50	spots	True	glippets
12	4398	truth_conditions	distinct	NA	generic	20	silver	50	legs	True	ackles
12	2825	truth_conditions	danger	NA	generic	21	yellow	50	legs	True	ludinos
12	1903	truth_conditions	distinct	NA	generic	22	gold	90	feathers	True	plovs
12	6456	truth_conditions	irrelevant	NA	generic	23	yellow	30	scales	True	dorbs
12	3888	truth_conditions	distinct	NA	generic	24	pink	10	ears	True	elleps
12	4055	truth_conditions	danger	NA	generic	25	silver	10	fur	True	morseths
12	9394	truth_conditions	irrelevant	NA	generic	26	copper	10	fur	True	kweps
12	20015	truth_conditions	danger	NA	generic	27	gold	70	stripes	True	daiths
12	10392	truth_conditions	irrelevant	NA	generic	28	purple	90	shells	True	javs
12	2088	truth_conditions	irrelevant	NA	generic	29	pink	30	legs	True	feps
13	12220	truth_conditions	danger	NA	some	0	purple	70	feathers	True	lorches
13	6513	truth_conditions	distinct	NA	some	1	green	30	teeth	True	zoovs
13	6060	truth_conditions	distinct	NA	some	2	orange	10	shells	True	luzaks
13	5864	truth_conditions	danger	NA	some	3	silver	90	fur	True	morseths
13	5636	truth_conditions	distinct	NA	some	4	silver	90	legs	True	ackles
13	4330	truth_conditions	irrelevant	NA	some	5	yellow	50	scales	True	dorbs
13	4607	truth_conditions	irrelevant	NA	some	6	gold	10	spots	True	stups
13	6053	truth_conditions	danger	NA	some	7	red	50	scales	True	blins
13	4299	truth_conditions	distinct	NA	some	8	gold	50	feathers	True	plovs
13	4280	truth_conditions	irrelevant	NA	some	9	purple	90	shells	True	javs
13	4239	truth_conditions	danger	NA	some	10	yellow	70	legs	True	ludinos
13	5304	truth_conditions	irrelevant	NA	some	11	orange	10	ears	True	kazzes
13	4550	truth_conditions	irrelevant	NA	some	12	silver	70	stripes	True	frams
13	4800	truth_conditions	danger	NA	some	13	orange	30	tails	True	zorbs
13	4934	truth_conditions	irrelevant	NA	some	14	green	50	tails	True	trufts
13	2796	truth_conditions	danger	NA	some	15	gold	30	stripes	True	daiths
13	2292	truth_conditions	distinct	NA	some	16	purple	70	tails	True	taifels
13	2975	truth_conditions	distinct	NA	some	17	blue	50	scales	True	reesles
13	3803	truth_conditions	danger	NA	some	18	copper	90	spots	True	glippets
13	4350	truth_conditions	irrelevant	NA	some	19	red	70	feathers	True	noobs
13	3722	truth_conditions	distinct	NA	some	20	copper	10	stripes	True	mooks
13	2512	truth_conditions	distinct	NA	some	21	yellow	30	fur	True	ollers
13	2400	truth_conditions	danger	NA	some	22	green	10	shells	True	moxes
13	2330	truth_conditions	irrelevant	NA	some	23	pink	30	legs	True	feps
13	2870	truth_conditions	irrelevant	NA	some	24	blue	30	teeth	True	thups
13	2356	truth_conditions	distinct	NA	some	25	pink	90	ears	True	elleps
13	3821	truth_conditions	irrelevant	NA	some	26	copper	90	fur	True	kweps
13	2734	truth_conditions	danger	NA	some	27	pink	10	teeth	True	krivels
13	3743	truth_conditions	distinct	NA	some	28	red	70	spots	True	sapers
13	2426	truth_conditions	danger	NA	some	29	blue	50	ears	True	cheebas
14	14572	implied_prevalence	irrelevant	0	most	NA	yellow	NA	scales	90	dorbs
14	14635	implied_prevalence	danger	1	most	NA	silver	NA	fur	95	morseths
14	8901	implied_prevalence	danger	2	most	NA	gold	NA	stripes	99	daiths
14	9950	implied_prevalence	distinct	3	most	NA	purple	NA	tails	98	taifels
14	15085	implied_prevalence	danger	4	most	NA	orange	NA	tails	92	zorbs
14	21348	implied_prevalence	distinct	5	most	NA	yellow	NA	fur	85	ollers
14	19084	implied_prevalence	danger	6	most	NA	copper	NA	spots	75	glippets
14	14481	implied_prevalence	danger	7	most	NA	yellow	NA	legs	99	ludinos
14	15717	implied_prevalence	irrelevant	8	most	NA	blue	NA	teeth	99	thups
14	9920	implied_prevalence	distinct	9	most	NA	red	NA	spots	90	sapers
14	14793	implied_prevalence	irrelevant	10	most	NA	red	NA	feathers	89	noobs
14	13960	implied_prevalence	distinct	11	most	NA	green	NA	teeth	89	zoovs
14	10071	implied_prevalence	irrelevant	12	most	NA	orange	NA	ears	95	kazzes
14	11004	implied_prevalence	irrelevant	13	most	NA	purple	NA	shells	98	javs
14	11914	implied_prevalence	danger	14	most	NA	pink	NA	teeth	96	krivels
14	15898	implied_prevalence	distinct	15	most	NA	silver	NA	legs	96	ackles
14	32066	implied_prevalence	irrelevant	16	most	NA	silver	NA	stripes	92	frams
14	13085	implied_prevalence	irrelevant	17	most	NA	pink	NA	legs	99	feps
14	7175	implied_prevalence	distinct	18	most	NA	blue	NA	scales	98	reesles
14	8257	implied_prevalence	danger	19	most	NA	blue	NA	ears	99	cheebas
14	10453	implied_prevalence	distinct	20	most	NA	orange	NA	shells	79	luzaks
14	10065	implied_prevalence	distinct	21	most	NA	pink	NA	ears	99	elleps
14	7011	implied_prevalence	distinct	22	most	NA	gold	NA	feathers	98	plovs
14	6917	implied_prevalence	irrelevant	23	most	NA	green	NA	tails	98	trufts
14	8515	implied_prevalence	distinct	24	most	NA	copper	NA	stripes	96	mooks
14	8464	implied_prevalence	danger	25	most	NA	purple	NA	feathers	90	lorches
14	8122	implied_prevalence	danger	26	most	NA	green	NA	shells	99	moxes
14	11122	implied_prevalence	irrelevant	27	most	NA	gold	NA	spots	99	stups
14	9444	implied_prevalence	danger	28	most	NA	red	NA	scales	92	blins
14	6952	implied_prevalence	irrelevant	29	most	NA	copper	NA	fur	99	kweps
15	13975	truth_conditions	danger	NA	most	0	red	30	scales	False	blins
15	15519	truth_conditions	danger	NA	most	1	pink	70	teeth	True	krivels
15	7491	truth_conditions	danger	NA	most	2	copper	10	spots	False	glippets
15	7172	truth_conditions	irrelevant	NA	most	3	red	10	feathers	False	noobs
15	4051	truth_conditions	danger	NA	most	4	orange	70	tails	True	zorbs
15	9353	truth_conditions	danger	NA	most	5	gold	10	stripes	False	daiths
15	8434	truth_conditions	irrelevant	NA	most	6	yellow	90	scales	True	dorbs
15	13509	truth_conditions	irrelevant	NA	most	7	gold	50	spots	False	stups
15	8147	truth_conditions	distinct	NA	most	8	silver	70	legs	True	ackles
15	5068	truth_conditions	danger	NA	most	9	green	90	shells	True	moxes
15	3562	truth_conditions	distinct	NA	most	10	purple	90	tails	True	taifels
15	5801	truth_conditions	irrelevant	NA	most	11	orange	50	ears	False	kazzes
15	12155	truth_conditions	distinct	NA	most	12	copper	10	stripes	False	mooks
15	5542	truth_conditions	danger	NA	most	13	blue	30	ears	False	cheebas
15	4351	truth_conditions	danger	NA	most	14	yellow	90	legs	True	ludinos
15	4321	truth_conditions	distinct	NA	most	15	pink	90	ears	True	elleps
15	3891	truth_conditions	distinct	NA	most	16	gold	50	feathers	False	plovs
15	6858	truth_conditions	irrelevant	NA	most	17	pink	10	legs	False	feps
15	4526	truth_conditions	danger	NA	most	18	silver	50	fur	False	morseths
15	4172	truth_conditions	distinct	NA	most	19	blue	30	scales	False	reesles
15	5294	truth_conditions	distinct	NA	most	20	red	10	spots	False	sapers
15	3893	truth_conditions	irrelevant	NA	most	21	green	30	tails	False	trufts
15	4720	truth_conditions	irrelevant	NA	most	22	silver	70	stripes	True	frams
15	3989	truth_conditions	distinct	NA	most	23	green	70	teeth	True	zoovs
15	4970	truth_conditions	distinct	NA	most	24	orange	50	shells	False	luzaks
15	4051	truth_conditions	distinct	NA	most	25	yellow	30	fur	False	ollers
15	3980	truth_conditions	danger	NA	most	26	purple	50	feathers	False	lorches
15	8757	truth_conditions	irrelevant	NA	most	27	blue	70	teeth	True	thups
15	7293	truth_conditions	irrelevant	NA	most	28	copper	30	fur	False	kweps
15	3474	truth_conditions	irrelevant	NA	most	29	purple	90	shells	True	javs
16	6833	implied_prevalence	distinct	0	generic	NA	silver	NA	legs	100	ackles
16	6655	implied_prevalence	irrelevant	1	generic	NA	yellow	NA	scales	100	dorbs
16	6056	implied_prevalence	distinct	2	generic	NA	purple	NA	tails	100	taifels
16	6226	implied_prevalence	irrelevant	3	generic	NA	copper	NA	fur	100	kweps
16	6990	implied_prevalence	danger	4	generic	NA	red	NA	scales	100	blins
16	5178	implied_prevalence	danger	5	generic	NA	purple	NA	feathers	100	lorches
16	5176	implied_prevalence	danger	6	generic	NA	orange	NA	tails	100	zorbs
16	5496	implied_prevalence	danger	7	generic	NA	pink	NA	teeth	100	krivels
16	30262	implied_prevalence	distinct	8	generic	NA	gold	NA	feathers	100	plovs
16	5116	implied_prevalence	irrelevant	9	generic	NA	gold	NA	spots	100	stups
16	4155	implied_prevalence	irrelevant	10	generic	NA	blue	NA	teeth	100	thups
16	3962	implied_prevalence	distinct	11	generic	NA	green	NA	teeth	100	zoovs
16	4966	implied_prevalence	irrelevant	12	generic	NA	silver	NA	stripes	100	frams
16	4904	implied_prevalence	distinct	13	generic	NA	pink	NA	ears	100	elleps
16	6750	implied_prevalence	distinct	14	generic	NA	red	NA	spots	100	sapers
16	4942	implied_prevalence	danger	15	generic	NA	silver	NA	fur	100	morseths
16	6314	implied_prevalence	danger	16	generic	NA	copper	NA	spots	100	glippets
16	4460	implied_prevalence	irrelevant	17	generic	NA	pink	NA	legs	100	feps
16	4718	implied_prevalence	irrelevant	18	generic	NA	red	NA	feathers	100	noobs
16	5426	implied_prevalence	distinct	19	generic	NA	yellow	NA	fur	100	ollers
16	10260	implied_prevalence	distinct	20	generic	NA	blue	NA	scales	100	reesles
16	5698	implied_prevalence	irrelevant	21	generic	NA	orange	NA	ears	100	kazzes
16	7584	implied_prevalence	distinct	22	generic	NA	orange	NA	shells	100	luzaks
16	5028	implied_prevalence	danger	23	generic	NA	yellow	NA	legs	100	ludinos
16	6275	implied_prevalence	irrelevant	24	generic	NA	purple	NA	shells	100	javs
16	6157	implied_prevalence	distinct	25	generic	NA	copper	NA	stripes	100	mooks
16	4786	implied_prevalence	danger	26	generic	NA	gold	NA	stripes	100	daiths
16	4968	implied_prevalence	danger	27	generic	NA	blue	NA	ears	100	cheebas
16	4864	implied_prevalence	danger	28	generic	NA	green	NA	shells	100	moxes
16	4515	implied_prevalence	irrelevant	29	generic	NA	green	NA	tails	100	trufts
17	8529	truth_conditions	irrelevant	NA	generic	0	blue	50	teeth	True	thups
17	5009	truth_conditions	danger	NA	generic	1	silver	50	fur	True	morseths
17	4261	truth_conditions	danger	NA	generic	2	green	10	shells	False	moxes
17	32403	truth_conditions	irrelevant	NA	generic	3	green	90	tails	True	trufts
17	8913	truth_conditions	danger	NA	generic	4	orange	90	tails	True	zorbs
17	5645	truth_conditions	distinct	NA	generic	5	pink	10	ears	False	elleps
17	3969	truth_conditions	irrelevant	NA	generic	6	purple	10	shells	False	javs
17	3733	truth_conditions	irrelevant	NA	generic	7	pink	70	legs	True	feps
17	2144	truth_conditions	danger	NA	generic	8	pink	50	teeth	True	krivels
17	2770	truth_conditions	irrelevant	NA	generic	9	copper	90	fur	True	kweps
17	4075	truth_conditions	distinct	NA	generic	10	copper	90	stripes	True	mooks
17	10056	truth_conditions	irrelevant	NA	generic	11	red	30	feathers	False	noobs
17	8479	truth_conditions	danger	NA	generic	12	yellow	70	legs	True	ludinos
17	3151	truth_conditions	distinct	NA	generic	13	gold	10	feathers	False	plovs
17	2111	truth_conditions	distinct	NA	generic	14	orange	70	shells	True	luzaks
17	3226	truth_conditions	irrelevant	NA	generic	15	yellow	50	scales	True	dorbs
17	28797	truth_conditions	distinct	NA	generic	16	red	50	spots	True	sapers
17	3348	truth_conditions	distinct	NA	generic	17	blue	30	scales	False	reesles
17	2845	truth_conditions	distinct	NA	generic	18	green	50	teeth	True	zoovs
17	2599	truth_conditions	danger	NA	generic	19	red	30	scales	False	blins
17	3027	truth_conditions	danger	NA	generic	20	blue	30	ears	False	cheebas
17	2543	truth_conditions	distinct	NA	generic	21	silver	30	legs	False	ackles
17	3076	truth_conditions	danger	NA	generic	22	purple	70	feathers	True	lorches
17	2644	truth_conditions	distinct	NA	generic	23	purple	70	tails	True	taifels
17	2493	truth_conditions	danger	NA	generic	24	copper	90	spots	True	glippets
17	2098	truth_conditions	danger	NA	generic	25	gold	10	stripes	False	daiths
17	2470	truth_conditions	irrelevant	NA	generic	26	orange	30	ears	False	kazzes
17	2865	truth_conditions	irrelevant	NA	generic	27	gold	70	spots	True	stups
17	3882	truth_conditions	distinct	NA	generic	28	yellow	90	fur	True	ollers
17	2155	truth_conditions	irrelevant	NA	generic	29	silver	10	stripes	False	frams
18	4091	implied_prevalence	danger	0	generic	NA	silver	NA	fur	55	morseths
18	3544	implied_prevalence	danger	1	generic	NA	pink	NA	teeth	55	krivels
18	2960	implied_prevalence	irrelevant	2	generic	NA	gold	NA	spots	60	stups
18	2629	implied_prevalence	irrelevant	3	generic	NA	blue	NA	teeth	80	thups
18	12709	implied_prevalence	distinct	4	generic	NA	silver	NA	legs	60	ackles
18	3326	implied_prevalence	irrelevant	5	generic	NA	yellow	NA	scales	90	dorbs
18	4072	implied_prevalence	irrelevant	6	generic	NA	copper	NA	fur	90	kweps
18	2530	implied_prevalence	irrelevant	7	generic	NA	orange	NA	ears	90	kazzes
18	2599	implied_prevalence	danger	8	generic	NA	green	NA	shells	55	moxes
18	2761	implied_prevalence	danger	9	generic	NA	purple	NA	feathers	55	lorches
18	3372	implied_prevalence	irrelevant	10	generic	NA	red	NA	feathers	80	noobs
18	3823	implied_prevalence	danger	11	generic	NA	copper	NA	spots	55	glippets
18	3376	implied_prevalence	irrelevant	12	generic	NA	green	NA	tails	80	trufts
18	4743	implied_prevalence	irrelevant	13	generic	NA	silver	NA	stripes	86	frams
18	4671	implied_prevalence	irrelevant	14	generic	NA	purple	NA	shells	69	javs
18	2596	implied_prevalence	distinct	15	generic	NA	orange	NA	shells	80	luzaks
18	2939	implied_prevalence	distinct	16	generic	NA	purple	NA	tails	80	taifels
18	2510	implied_prevalence	danger	17	generic	NA	yellow	NA	legs	55	ludinos
18	3758	implied_prevalence	danger	18	generic	NA	orange	NA	tails	69	zorbs
18	4582	implied_prevalence	danger	19	generic	NA	gold	NA	stripes	55	daiths
18	2496	implied_prevalence	danger	20	generic	NA	blue	NA	ears	54	cheebas
18	3205	implied_prevalence	distinct	21	generic	NA	red	NA	spots	60	sapers
18	2664	implied_prevalence	distinct	22	generic	NA	green	NA	teeth	77	zoovs
18	2578	implied_prevalence	danger	23	generic	NA	red	NA	scales	60	blins
18	2816	implied_prevalence	distinct	24	generic	NA	pink	NA	ears	90	elleps
18	2656	implied_prevalence	distinct	25	generic	NA	blue	NA	scales	80	reesles
18	2566	implied_prevalence	irrelevant	26	generic	NA	pink	NA	legs	70	feps
18	1980	implied_prevalence	distinct	27	generic	NA	yellow	NA	fur	80	ollers
18	1986	implied_prevalence	distinct	28	generic	NA	gold	NA	feathers	80	plovs
18	2011	implied_prevalence	distinct	29	generic	NA	copper	NA	stripes	90	mooks
19	8148	truth_conditions	irrelevant	NA	some	0	orange	90	ears	True	kazzes
19	10963	truth_conditions	danger	NA	some	1	gold	10	stripes	True	daiths
19	9071	truth_conditions	distinct	NA	some	2	blue	70	scales	True	reesles
19	56934	truth_conditions	irrelevant	NA	some	3	purple	70	shells	True	javs
19	142988	truth_conditions	danger	NA	some	4	pink	50	teeth	True	krivels
19	15575	truth_conditions	irrelevant	NA	some	5	red	10	feathers	True	noobs
19	5100	truth_conditions	irrelevant	NA	some	6	yellow	30	scales	True	dorbs
19	4138	truth_conditions	danger	NA	some	7	copper	30	spots	True	glippets
19	5547	truth_conditions	danger	NA	some	8	yellow	90	legs	True	ludinos
19	3190	truth_conditions	distinct	NA	some	9	red	10	spots	True	sapers
19	2552	truth_conditions	danger	NA	some	10	silver	70	fur	True	morseths
19	5374	truth_conditions	danger	NA	some	11	green	30	shells	True	moxes
19	9064	truth_conditions	distinct	NA	some	12	silver	90	legs	True	ackles
19	26285	truth_conditions	distinct	NA	some	13	gold	50	feathers	True	plovs
19	3942	truth_conditions	irrelevant	NA	some	14	gold	10	spots	True	stups
19	30466	truth_conditions	distinct	NA	some	15	green	30	teeth	True	zoovs
19	24688	truth_conditions	distinct	NA	some	16	purple	70	tails	True	taifels
19	2328	truth_conditions	danger	NA	some	17	blue	50	ears	True	cheebas
19	2249	truth_conditions	danger	NA	some	18	orange	70	tails	True	zorbs
19	2260	truth_conditions	distinct	NA	some	19	pink	90	ears	True	elleps
19	2949	truth_conditions	irrelevant	NA	some	20	pink	50	legs	True	feps
19	2576	truth_conditions	irrelevant	NA	some	21	blue	30	teeth	True	thups
19	3417	truth_conditions	distinct	NA	some	22	orange	10	shells	True	luzaks
19	2475	truth_conditions	danger	NA	some	23	red	90	scales	True	blins
19	3432	truth_conditions	distinct	NA	some	24	yellow	30	fur	True	ollers
19	5043	truth_conditions	danger	NA	some	25	purple	10	feathers	True	lorches
19	2915	truth_conditions	distinct	NA	some	26	copper	50	stripes	True	mooks
19	2658	truth_conditions	irrelevant	NA	some	27	silver	70	stripes	True	frams
19	1960	truth_conditions	irrelevant	NA	some	28	copper	90	fur	True	kweps
19	3468	truth_conditions	irrelevant	NA	some	29	green	50	tails	True	trufts
20	9383	truth_conditions	irrelevant	NA	most	0	silver	90	stripes	True	frams
20	14316	truth_conditions	distinct	NA	most	1	copper	50	stripes	True	mooks
20	5671	truth_conditions	irrelevant	NA	most	2	blue	70	teeth	True	thups
20	3363	truth_conditions	distinct	NA	most	3	red	30	spots	False	sapers
20	5756	truth_conditions	irrelevant	NA	most	4	red	90	feathers	True	noobs
20	3633	truth_conditions	distinct	NA	most	5	purple	90	tails	True	taifels
20	3659	truth_conditions	distinct	NA	most	6	orange	10	shells	False	luzaks
20	2998	truth_conditions	danger	NA	most	7	copper	10	spots	False	glippets
20	4124	truth_conditions	distinct	NA	most	8	pink	10	ears	False	elleps
20	2766	truth_conditions	irrelevant	NA	most	9	copper	30	fur	False	kweps
20	7102	truth_conditions	distinct	NA	most	10	blue	30	scales	False	reesles
20	2027	truth_conditions	danger	NA	most	11	green	90	shells	True	moxes
20	1579	truth_conditions	distinct	NA	most	12	yellow	70	fur	True	ollers
20	3647	truth_conditions	irrelevant	NA	most	13	green	50	tails	True	trufts
20	4794	truth_conditions	irrelevant	NA	most	14	gold	50	spots	True	stups
20	4706	truth_conditions	distinct	NA	most	15	gold	90	feathers	True	plovs
20	2526	truth_conditions	distinct	NA	most	16	green	70	teeth	True	zoovs
20	2093	truth_conditions	danger	NA	most	17	pink	50	teeth	True	krivels
20	3488	truth_conditions	danger	NA	most	18	red	30	scales	False	blins
20	2274	truth_conditions	danger	NA	most	19	yellow	30	legs	False	ludinos
20	5159	truth_conditions	irrelevant	NA	most	20	pink	30	legs	False	feps
20	5929	truth_conditions	danger	NA	most	21	purple	70	feathers	True	lorches
20	2797	truth_conditions	irrelevant	NA	most	22	purple	10	shells	False	javs
20	2762	truth_conditions	danger	NA	most	23	gold	70	stripes	True	daiths
20	1784	truth_conditions	irrelevant	NA	most	24	yellow	70	scales	True	dorbs
20	7678	truth_conditions	danger	NA	most	25	blue	90	ears	True	cheebas
20	2574	truth_conditions	irrelevant	NA	most	26	orange	10	ears	False	kazzes
20	1923	truth_conditions	danger	NA	most	27	orange	50	tails	True	zorbs
20	8649	truth_conditions	danger	NA	most	28	silver	10	fur	False	morseths
20	2611	truth_conditions	distinct	NA	most	29	silver	50	legs	True	ackles
21	18587	truth_conditions	irrelevant	NA	generic	0	copper	70	fur	False	kweps
21	17143	truth_conditions	distinct	NA	generic	1	yellow	30	fur	False	ollers
21	22331	truth_conditions	danger	NA	generic	2	copper	10	spots	False	glippets
21	8335	truth_conditions	irrelevant	NA	generic	3	orange	50	ears	True	kazzes
21	11722	truth_conditions	danger	NA	generic	4	pink	70	teeth	False	krivels
21	10429	truth_conditions	danger	NA	generic	5	orange	70	tails	False	zorbs
21	14591	truth_conditions	distinct	NA	generic	6	red	30	spots	True	sapers
21	7160	truth_conditions	danger	NA	generic	7	silver	50	fur	False	morseths
21	10232	truth_conditions	danger	NA	generic	8	red	90	scales	False	blins
21	9169	truth_conditions	distinct	NA	generic	9	gold	50	feathers	True	plovs
21	13961	truth_conditions	danger	NA	generic	10	gold	90	stripes	True	daiths
21	14861	truth_conditions	irrelevant	NA	generic	11	purple	50	shells	True	javs
21	7301	truth_conditions	danger	NA	generic	12	blue	30	ears	True	cheebas
21	9281	truth_conditions	distinct	NA	generic	13	silver	70	legs	True	ackles
21	10688	truth_conditions	distinct	NA	generic	14	green	90	teeth	True	zoovs
21	10844	truth_conditions	irrelevant	NA	generic	15	gold	10	spots	False	stups
21	5219	truth_conditions	distinct	NA	generic	16	orange	10	shells	False	luzaks
21	10991	truth_conditions	irrelevant	NA	generic	17	blue	30	teeth	True	thups
21	4468	truth_conditions	danger	NA	generic	18	yellow	30	legs	True	ludinos
21	4363	truth_conditions	irrelevant	NA	generic	19	pink	10	legs	True	feps
21	8110	truth_conditions	danger	NA	generic	20	purple	10	feathers	True	lorches
21	9270	truth_conditions	distinct	NA	generic	21	copper	10	stripes	False	mooks
21	3938	truth_conditions	danger	NA	generic	22	green	50	shells	True	moxes
21	10560	truth_conditions	distinct	NA	generic	23	blue	50	scales	True	reesles
21	5426	truth_conditions	irrelevant	NA	generic	24	silver	30	stripes	False	frams
21	4275	truth_conditions	irrelevant	NA	generic	25	green	70	tails	True	trufts
21	7350	truth_conditions	distinct	NA	generic	26	purple	70	tails	True	taifels
21	3349	truth_conditions	distinct	NA	generic	27	pink	90	ears	True	elleps
21	5974	truth_conditions	irrelevant	NA	generic	28	yellow	90	scales	True	dorbs
21	7166	truth_conditions	irrelevant	NA	generic	29	red	90	feathers	True	noobs
22	16850	implied_prevalence	irrelevant	0	some	NA	blue	NA	teeth	70	thups
22	10513	implied_prevalence	distinct	1	some	NA	red	NA	spots	80	sapers
22	12416	implied_prevalence	danger	2	some	NA	pink	NA	teeth	50	krivels
22	10743	implied_prevalence	irrelevant	3	some	NA	green	NA	tails	95	trufts
22	9587	implied_prevalence	danger	4	some	NA	orange	NA	tails	65	zorbs
22	15094	implied_prevalence	distinct	5	some	NA	copper	NA	stripes	65	mooks
22	13190	implied_prevalence	distinct	6	some	NA	pink	NA	ears	35	elleps
22	8985	implied_prevalence	irrelevant	7	some	NA	orange	NA	ears	90	kazzes
22	8722	implied_prevalence	irrelevant	8	some	NA	red	NA	feathers	85	noobs
22	12065	implied_prevalence	danger	9	some	NA	gold	NA	stripes	90	daiths
22	10691	implied_prevalence	distinct	10	some	NA	blue	NA	scales	75	reesles
22	8728	implied_prevalence	irrelevant	11	some	NA	pink	NA	legs	90	feps
22	11258	implied_prevalence	distinct	12	some	NA	gold	NA	feathers	73	plovs
22	14691	implied_prevalence	danger	13	some	NA	blue	NA	ears	79	cheebas
22	12753	implied_prevalence	irrelevant	14	some	NA	purple	NA	shells	98	javs
22	9669	implied_prevalence	distinct	15	some	NA	green	NA	teeth	60	zoovs
22	13573	implied_prevalence	distinct	16	some	NA	purple	NA	tails	59	taifels
22	13854	implied_prevalence	danger	17	some	NA	silver	NA	fur	45	morseths
22	9209	implied_prevalence	irrelevant	18	some	NA	silver	NA	stripes	98	frams
22	10303	implied_prevalence	distinct	19	some	NA	silver	NA	legs	60	ackles
22	11685	implied_prevalence	danger	20	some	NA	yellow	NA	legs	55	ludinos
22	7975	implied_prevalence	irrelevant	21	some	NA	yellow	NA	scales	80	dorbs
22	8725	implied_prevalence	danger	22	some	NA	red	NA	scales	70	blins
22	13780	implied_prevalence	danger	23	some	NA	purple	NA	feathers	80	lorches
22	10794	implied_prevalence	danger	24	some	NA	green	NA	shells	45	moxes
22	8041	implied_prevalence	distinct	25	some	NA	orange	NA	shells	45	luzaks
22	9226	implied_prevalence	distinct	26	some	NA	yellow	NA	fur	50	ollers
22	9115	implied_prevalence	irrelevant	27	some	NA	gold	NA	spots	90	stups
22	16376	implied_prevalence	danger	28	some	NA	copper	NA	spots	76	glippets
22	7117	implied_prevalence	irrelevant	29	some	NA	copper	NA	fur	90	kweps
23	9685	truth_conditions	distinct	NA	generic	0	blue	70	scales	True	reesles
23	5792	truth_conditions	irrelevant	NA	generic	1	yellow	50	scales	True	dorbs
23	4972	truth_conditions	irrelevant	NA	generic	2	red	30	feathers	False	noobs
23	7073	truth_conditions	danger	NA	generic	3	purple	90	feathers	True	lorches
23	6092	truth_conditions	distinct	NA	generic	4	gold	10	feathers	False	plovs
23	4388	truth_conditions	distinct	NA	generic	5	green	90	teeth	True	zoovs
23	5753	truth_conditions	distinct	NA	generic	6	red	30	spots	False	sapers
23	5178	truth_conditions	danger	NA	generic	7	red	10	scales	False	blins
23	5819	truth_conditions	distinct	NA	generic	8	purple	30	tails	False	taifels
23	4011	truth_conditions	irrelevant	NA	generic	9	orange	70	ears	True	kazzes
23	3331	truth_conditions	irrelevant	NA	generic	10	purple	50	shells	True	javs
23	15847	truth_conditions	irrelevant	NA	generic	11	gold	70	spots	True	stups
23	8909	truth_conditions	distinct	NA	generic	12	yellow	70	fur	True	ollers
23	3000	truth_conditions	irrelevant	NA	generic	13	silver	10	stripes	False	frams
23	3336	truth_conditions	danger	NA	generic	14	green	10	shells	False	moxes
23	3257	truth_conditions	danger	NA	generic	15	blue	50	ears	True	cheebas
23	4878	truth_conditions	distinct	NA	generic	16	copper	90	stripes	True	mooks
23	3667	truth_conditions	irrelevant	NA	generic	17	copper	10	fur	False	kweps
23	3263	truth_conditions	danger	NA	generic	18	gold	30	stripes	False	daiths
23	4338	truth_conditions	danger	NA	generic	19	copper	70	spots	True	glippets
23	2762	truth_conditions	danger	NA	generic	20	orange	50	tails	True	zorbs
23	4668	truth_conditions	distinct	NA	generic	21	orange	50	shells	True	luzaks
23	2446	truth_conditions	distinct	NA	generic	22	silver	10	legs	False	ackles
23	4805	truth_conditions	danger	NA	generic	23	pink	70	teeth	True	krivels
23	5645	truth_conditions	danger	NA	generic	24	yellow	30	legs	False	ludinos
23	2887	truth_conditions	irrelevant	NA	generic	25	blue	90	teeth	True	thups
23	12705	truth_conditions	distinct	NA	generic	26	pink	50	ears	True	elleps
23	2743	truth_conditions	irrelevant	NA	generic	27	pink	90	legs	True	feps
23	3036	truth_conditions	irrelevant	NA	generic	28	green	30	tails	False	trufts
23	4845	truth_conditions	danger	NA	generic	29	silver	90	fur	True	morseths
24	7833	implied_prevalence	danger	0	generic	NA	yellow	NA	legs	100	ludinos
24	6800	implied_prevalence	danger	1	generic	NA	red	NA	scales	75	blins
24	6215	implied_prevalence	irrelevant	2	generic	NA	yellow	NA	scales	80	dorbs
24	6608	implied_prevalence	irrelevant	3	generic	NA	blue	NA	teeth	70	thups
24	8094	implied_prevalence	irrelevant	4	generic	NA	gold	NA	spots	5	stups
24	8040	implied_prevalence	distinct	5	generic	NA	orange	NA	shells	60	luzaks
24	9744	implied_prevalence	danger	6	generic	NA	gold	NA	stripes	15	daiths
24	4812	implied_prevalence	irrelevant	7	generic	NA	pink	NA	legs	45	feps
24	4788	implied_prevalence	distinct	8	generic	NA	red	NA	spots	5	sapers
24	5886	implied_prevalence	distinct	9	generic	NA	copper	NA	stripes	12	mooks
24	5757	implied_prevalence	distinct	10	generic	NA	pink	NA	ears	30	elleps
24	4300	implied_prevalence	irrelevant	11	generic	NA	red	NA	feathers	70	noobs
24	6541	implied_prevalence	danger	12	generic	NA	orange	NA	tails	70	zorbs
24	4159	implied_prevalence	irrelevant	13	generic	NA	green	NA	tails	40	trufts
24	2615	implied_prevalence	irrelevant	14	generic	NA	purple	NA	shells	30	javs
24	2948	implied_prevalence	distinct	15	generic	NA	purple	NA	tails	80	taifels
24	4474	implied_prevalence	danger	16	generic	NA	green	NA	shells	60	moxes
24	4470	implied_prevalence	distinct	17	generic	NA	silver	NA	legs	30	ackles
24	3132	implied_prevalence	danger	18	generic	NA	blue	NA	ears	100	cheebas
24	5412	implied_prevalence	distinct	19	generic	NA	gold	NA	feathers	13	plovs
24	2580	implied_prevalence	danger	20	generic	NA	silver	NA	fur	40	morseths
24	2576	implied_prevalence	danger	21	generic	NA	copper	NA	spots	70	glippets
24	4356	implied_prevalence	distinct	22	generic	NA	green	NA	teeth	78	zoovs
24	3230	implied_prevalence	danger	23	generic	NA	purple	NA	feathers	100	lorches
24	3788	implied_prevalence	distinct	24	generic	NA	yellow	NA	fur	30	ollers
24	3368	implied_prevalence	irrelevant	25	generic	NA	orange	NA	ears	24	kazzes
24	2754	implied_prevalence	irrelevant	26	generic	NA	silver	NA	stripes	30	frams
24	2236	implied_prevalence	irrelevant	27	generic	NA	copper	NA	fur	60	kweps
24	3004	implied_prevalence	distinct	28	generic	NA	blue	NA	scales	40	reesles
24	5449	implied_prevalence	danger	29	generic	NA	pink	NA	teeth	70	krivels
25	10136	implied_prevalence	irrelevant	0	some	NA	silver	NA	stripes	22	frams
25	5028	implied_prevalence	irrelevant	1	some	NA	green	NA	tails	55	trufts
25	3262	implied_prevalence	irrelevant	2	some	NA	pink	NA	legs	44	feps
25	6299	implied_prevalence	irrelevant	3	some	NA	yellow	NA	scales	25	dorbs
25	2892	implied_prevalence	danger	4	some	NA	blue	NA	ears	11	cheebas
25	3904	implied_prevalence	danger	5	some	NA	red	NA	scales	22	blins
25	3679	implied_prevalence	danger	6	some	NA	yellow	NA	legs	11	ludinos
25	3532	implied_prevalence	danger	7	some	NA	copper	NA	spots	15	glippets
25	4927	implied_prevalence	distinct	8	some	NA	green	NA	teeth	8	zoovs
25	3668	implied_prevalence	irrelevant	9	some	NA	blue	NA	teeth	7	thups
25	2768	implied_prevalence	danger	10	some	NA	silver	NA	fur	2	morseths
25	3205	implied_prevalence	distinct	11	some	NA	copper	NA	stripes	11	mooks
25	2250	implied_prevalence	irrelevant	12	some	NA	red	NA	feathers	11	noobs
25	2565	implied_prevalence	irrelevant	13	some	NA	gold	NA	spots	8	stups
25	2497	implied_prevalence	distinct	14	some	NA	silver	NA	legs	7	ackles
25	3645	implied_prevalence	distinct	15	some	NA	purple	NA	tails	4	taifels
25	2655	implied_prevalence	danger	16	some	NA	pink	NA	teeth	2	krivels
25	1665	implied_prevalence	danger	17	some	NA	orange	NA	tails	5	zorbs
25	1721	implied_prevalence	distinct	18	some	NA	blue	NA	scales	4	reesles
25	2734	implied_prevalence	irrelevant	19	some	NA	copper	NA	fur	6	kweps
25	2317	implied_prevalence	danger	20	some	NA	green	NA	shells	4	moxes
25	2014	implied_prevalence	distinct	21	some	NA	yellow	NA	fur	4	ollers
25	1293	implied_prevalence	distinct	22	some	NA	pink	NA	ears	4	elleps
25	1496	implied_prevalence	irrelevant	23	some	NA	purple	NA	shells	7	javs
25	1260	implied_prevalence	distinct	24	some	NA	orange	NA	shells	4	luzaks
25	1507	implied_prevalence	distinct	25	some	NA	red	NA	spots	1	sapers
25	1383	implied_prevalence	danger	26	some	NA	gold	NA	stripes	4	daiths
25	1429	implied_prevalence	irrelevant	27	some	NA	orange	NA	ears	5	kazzes
25	1429	implied_prevalence	distinct	28	some	NA	gold	NA	feathers	2	plovs
25	2081	implied_prevalence	danger	29	some	NA	purple	NA	feathers	4	lorches
26	11194	implied_prevalence	distinct	0	most	NA	copper	NA	stripes	90	mooks
26	6399	implied_prevalence	danger	1	most	NA	yellow	NA	legs	90	ludinos
26	4093	implied_prevalence	irrelevant	2	most	NA	red	NA	feathers	90	noobs
26	11735	implied_prevalence	danger	3	most	NA	blue	NA	ears	95	cheebas
26	5154	implied_prevalence	danger	4	most	NA	orange	NA	tails	95	zorbs
26	4171	implied_prevalence	danger	5	most	NA	silver	NA	fur	95	morseths
26	4259	implied_prevalence	irrelevant	6	most	NA	gold	NA	spots	90	stups
26	7500	implied_prevalence	irrelevant	7	most	NA	blue	NA	teeth	90	thups
26	3352	implied_prevalence	danger	8	most	NA	purple	NA	feathers	95	lorches
26	3609	implied_prevalence	distinct	9	most	NA	red	NA	spots	95	sapers
26	3984	implied_prevalence	irrelevant	10	most	NA	green	NA	tails	90	trufts
26	5201	implied_prevalence	danger	11	most	NA	pink	NA	teeth	90	krivels
26	3782	implied_prevalence	distinct	12	most	NA	gold	NA	feathers	90	plovs
26	5512	implied_prevalence	irrelevant	13	most	NA	yellow	NA	scales	95	dorbs
26	4203	implied_prevalence	irrelevant	14	most	NA	pink	NA	legs	90	feps
26	6339	implied_prevalence	irrelevant	15	most	NA	silver	NA	stripes	95	frams
26	7437	implied_prevalence	distinct	16	most	NA	green	NA	teeth	95	zoovs
26	4085	implied_prevalence	danger	17	most	NA	gold	NA	stripes	90	daiths
26	4172	implied_prevalence	distinct	18	most	NA	blue	NA	scales	95	reesles
26	2312	implied_prevalence	distinct	19	most	NA	orange	NA	shells	90	luzaks
26	10415	implied_prevalence	distinct	20	most	NA	pink	NA	ears	95	elleps
26	3093	implied_prevalence	danger	21	most	NA	copper	NA	spots	95	glippets
26	3823	implied_prevalence	distinct	22	most	NA	silver	NA	legs	90	ackles
26	6907	implied_prevalence	danger	23	most	NA	red	NA	scales	90	blins
26	85513	implied_prevalence	irrelevant	24	most	NA	copper	NA	fur	90	kweps
26	12655	implied_prevalence	distinct	25	most	NA	purple	NA	tails	95	taifels
26	18144	implied_prevalence	irrelevant	26	most	NA	orange	NA	ears	90	kazzes
26	16540	implied_prevalence	irrelevant	27	most	NA	purple	NA	shells	95	javs
26	4057	implied_prevalence	distinct	28	most	NA	yellow	NA	fur	90	ollers
26	10851	implied_prevalence	danger	29	most	NA	green	NA	shells	90	moxes
27	6628	implied_prevalence	distinct	0	generic	NA	orange	NA	shells	100	luzaks
27	14028	implied_prevalence	danger	1	generic	NA	orange	NA	tails	100	zorbs
27	2474	implied_prevalence	danger	2	generic	NA	blue	NA	ears	100	cheebas
27	2777	implied_prevalence	danger	3	generic	NA	yellow	NA	legs	100	ludinos
27	2309	implied_prevalence	danger	4	generic	NA	green	NA	shells	100	moxes
27	2558	implied_prevalence	distinct	5	generic	NA	pink	NA	ears	50	elleps
27	4185	implied_prevalence	irrelevant	6	generic	NA	orange	NA	ears	75	kazzes
27	3073	implied_prevalence	distinct	7	generic	NA	blue	NA	scales	100	reesles
27	12658	implied_prevalence	distinct	8	generic	NA	red	NA	spots	100	sapers
27	2882	implied_prevalence	irrelevant	9	generic	NA	blue	NA	teeth	90	thups
27	3419	implied_prevalence	danger	10	generic	NA	red	NA	scales	60	blins
27	4030	implied_prevalence	distinct	11	generic	NA	silver	NA	legs	50	ackles
27	2877	implied_prevalence	irrelevant	12	generic	NA	red	NA	feathers	30	noobs
27	3442	implied_prevalence	danger	13	generic	NA	silver	NA	fur	50	morseths
27	25925	implied_prevalence	danger	14	generic	NA	purple	NA	feathers	60	lorches
27	2525	implied_prevalence	irrelevant	15	generic	NA	pink	NA	legs	50	feps
27	2316	implied_prevalence	distinct	16	generic	NA	copper	NA	stripes	50	mooks
27	3462	implied_prevalence	danger	17	generic	NA	gold	NA	stripes	10	daiths
27	3090	implied_prevalence	irrelevant	18	generic	NA	gold	NA	spots	70	stups
27	53149	implied_prevalence	irrelevant	19	generic	NA	yellow	NA	scales	90	dorbs
27	55469	implied_prevalence	distinct	20	generic	NA	purple	NA	tails	50	taifels
27	3065	implied_prevalence	irrelevant	21	generic	NA	green	NA	tails	90	trufts
27	2899	implied_prevalence	distinct	22	generic	NA	gold	NA	feathers	100	plovs
27	2081	implied_prevalence	irrelevant	23	generic	NA	silver	NA	stripes	100	frams
27	2750	implied_prevalence	danger	24	generic	NA	copper	NA	spots	20	glippets
27	2360	implied_prevalence	distinct	25	generic	NA	yellow	NA	fur	100	ollers
27	24808	implied_prevalence	distinct	26	generic	NA	green	NA	teeth	100	zoovs
27	2812	implied_prevalence	danger	27	generic	NA	pink	NA	teeth	20	krivels
27	2772	implied_prevalence	irrelevant	28	generic	NA	purple	NA	shells	100	javs
27	2292	implied_prevalence	irrelevant	29	generic	NA	copper	NA	fur	100	kweps
28	11899	truth_conditions	irrelevant	NA	most	0	red	70	feathers	True	noobs
28	12412	truth_conditions	distinct	NA	most	1	copper	90	stripes	True	mooks
28	11319	truth_conditions	danger	NA	most	2	blue	30	ears	False	cheebas
28	10197	truth_conditions	distinct	NA	most	3	silver	30	legs	False	ackles
28	7014	truth_conditions	distinct	NA	most	4	purple	50	tails	False	taifels
28	7522	truth_conditions	distinct	NA	most	5	gold	70	feathers	True	plovs
28	9533	truth_conditions	distinct	NA	most	6	red	50	spots	False	sapers
28	11082	truth_conditions	danger	NA	most	7	green	50	shells	False	moxes
28	8973	truth_conditions	danger	NA	most	8	orange	30	tails	False	zorbs
28	10810	truth_conditions	danger	NA	most	9	copper	70	spots	True	glippets
28	7258	truth_conditions	danger	NA	most	10	pink	70	teeth	True	krivels
28	5385	truth_conditions	irrelevant	NA	most	11	purple	70	shells	True	javs
28	10160	truth_conditions	irrelevant	NA	most	12	green	30	tails	False	trufts
28	7723	truth_conditions	distinct	NA	most	13	blue	30	scales	False	reesles
28	5030	truth_conditions	irrelevant	NA	most	14	gold	90	spots	True	stups
28	6672	truth_conditions	irrelevant	NA	most	15	silver	50	stripes	False	frams
28	6972	truth_conditions	irrelevant	NA	most	16	copper	10	fur	False	kweps
28	6665	truth_conditions	irrelevant	NA	most	17	blue	50	teeth	False	thups
28	5457	truth_conditions	distinct	NA	most	18	orange	70	shells	True	luzaks
28	10334	truth_conditions	danger	NA	most	19	gold	10	stripes	False	daiths
28	8032	truth_conditions	danger	NA	most	20	red	50	scales	False	blins
28	6510	truth_conditions	irrelevant	NA	most	21	orange	10	ears	False	kazzes
28	8380	truth_conditions	irrelevant	NA	most	22	yellow	90	scales	True	dorbs
28	7132	truth_conditions	danger	NA	most	23	yellow	90	legs	True	ludinos
28	14197	truth_conditions	distinct	NA	most	24	pink	90	ears	True	elleps
28	5995	truth_conditions	distinct	NA	most	25	green	10	teeth	False	zoovs
28	11798	truth_conditions	danger	NA	most	26	silver	90	fur	True	morseths
28	8652	truth_conditions	irrelevant	NA	most	27	pink	30	legs	False	feps
28	4815	truth_conditions	distinct	NA	most	28	yellow	10	fur	False	ollers
28	7833	truth_conditions	danger	NA	most	29	purple	10	feathers	False	lorches
29	96859	implied_prevalence	irrelevant	0	most	NA	yellow	NA	scales	80	dorbs
29	15703	implied_prevalence	distinct	1	most	NA	green	NA	teeth	90	zoovs
29	7088	implied_prevalence	danger	2	most	NA	green	NA	shells	90	moxes
29	8032	implied_prevalence	irrelevant	3	most	NA	red	NA	feathers	90	noobs
29	4936	implied_prevalence	distinct	4	most	NA	gold	NA	feathers	90	plovs
29	6409	implied_prevalence	distinct	5	most	NA	blue	NA	scales	90	reesles
29	6647	implied_prevalence	distinct	6	most	NA	red	NA	spots	90	sapers
29	6192	implied_prevalence	irrelevant	7	most	NA	pink	NA	legs	90	feps
29	4240	implied_prevalence	irrelevant	8	most	NA	silver	NA	stripes	90	frams
29	6048	implied_prevalence	danger	9	most	NA	blue	NA	ears	90	cheebas
29	4647	implied_prevalence	danger	10	most	NA	copper	NA	spots	90	glippets
29	6161	implied_prevalence	danger	11	most	NA	orange	NA	tails	90	zorbs
29	7095	implied_prevalence	irrelevant	12	most	NA	green	NA	tails	90	trufts
29	42992	implied_prevalence	irrelevant	13	most	NA	orange	NA	ears	90	kazzes
29	3016	implied_prevalence	danger	14	most	NA	red	NA	scales	90	blins
29	3720	implied_prevalence	irrelevant	15	most	NA	copper	NA	fur	90	kweps
29	4512	implied_prevalence	distinct	16	most	NA	pink	NA	ears	90	elleps
29	4904	implied_prevalence	irrelevant	17	most	NA	purple	NA	shells	90	javs
29	3401	implied_prevalence	distinct	18	most	NA	yellow	NA	fur	90	ollers
29	3679	implied_prevalence	danger	19	most	NA	silver	NA	fur	90	morseths
29	4112	implied_prevalence	irrelevant	20	most	NA	gold	NA	spots	90	stups
29	28088	implied_prevalence	irrelevant	21	most	NA	blue	NA	teeth	90	thups
29	3487	implied_prevalence	distinct	22	most	NA	purple	NA	tails	90	taifels
29	2784	implied_prevalence	danger	23	most	NA	yellow	NA	legs	90	ludinos
29	3103	implied_prevalence	distinct	24	most	NA	silver	NA	legs	90	ackles
29	2898	implied_prevalence	danger	25	most	NA	gold	NA	stripes	90	daiths
29	3270	implied_prevalence	danger	26	most	NA	purple	NA	feathers	90	lorches
29	2984	implied_prevalence	distinct	27	most	NA	copper	NA	stripes	90	mooks
29	4055	implied_prevalence	danger	28	most	NA	pink	NA	teeth	90	krivels
29	3719	implied_prevalence	distinct	29	most	NA	orange	NA	shells	90	luzaks
30	8381	truth_conditions	distinct	NA	some	0	gold	30	feathers	True	plovs
30	7196	truth_conditions	irrelevant	NA	some	1	orange	50	ears	True	kazzes
30	7189	truth_conditions	danger	NA	some	2	gold	30	stripes	True	daiths
30	6508	truth_conditions	danger	NA	some	3	yellow	90	legs	True	ludinos
30	4640	truth_conditions	irrelevant	NA	some	4	silver	10	stripes	True	frams
30	5012	truth_conditions	irrelevant	NA	some	5	red	90	feathers	True	noobs
30	3631	truth_conditions	danger	NA	some	6	red	50	scales	True	blins
30	6407	truth_conditions	danger	NA	some	7	green	70	shells	True	moxes
30	2909	truth_conditions	irrelevant	NA	some	8	copper	30	fur	True	kweps
30	3171	truth_conditions	irrelevant	NA	some	9	pink	70	legs	True	feps
30	3427	truth_conditions	danger	NA	some	10	silver	10	fur	True	morseths
30	3915	truth_conditions	danger	NA	some	11	pink	30	teeth	True	krivels
30	5366	truth_conditions	distinct	NA	some	12	copper	70	stripes	True	mooks
30	3207	truth_conditions	distinct	NA	some	13	yellow	10	fur	True	ollers
30	2618	truth_conditions	distinct	NA	some	14	red	70	spots	True	sapers
30	2569	truth_conditions	danger	NA	some	15	orange	90	tails	True	zorbs
30	3267	truth_conditions	danger	NA	some	16	blue	70	ears	True	cheebas
30	3196	truth_conditions	danger	NA	some	17	copper	50	spots	True	glippets
30	2812	truth_conditions	distinct	NA	some	18	blue	30	scales	True	reesles
30	2179	truth_conditions	irrelevant	NA	some	19	blue	90	teeth	True	thups
30	3188	truth_conditions	distinct	NA	some	20	purple	10	tails	True	taifels
30	4004	truth_conditions	danger	NA	some	21	purple	10	feathers	True	lorches
30	2129	truth_conditions	irrelevant	NA	some	22	purple	30	shells	True	javs
30	1690	truth_conditions	irrelevant	NA	some	23	gold	10	spots	True	stups
30	2923	truth_conditions	distinct	NA	some	24	pink	50	ears	True	elleps
30	2852	truth_conditions	distinct	NA	some	25	green	50	teeth	True	zoovs
30	3076	truth_conditions	irrelevant	NA	some	26	yellow	50	scales	True	dorbs
30	2618	truth_conditions	distinct	NA	some	27	silver	90	legs	True	ackles
30	4717	truth_conditions	irrelevant	NA	some	28	green	70	tails	True	trufts
30	3544	truth_conditions	distinct	NA	some	29	orange	90	shells	True	luzaks
31	11022	truth_conditions	danger	NA	some	0	green	10	shells	True	moxes
31	6046	truth_conditions	danger	NA	some	1	orange	30	tails	True	zorbs
31	6189	truth_conditions	irrelevant	NA	some	2	purple	70	shells	True	javs
31	5943	truth_conditions	danger	NA	some	3	yellow	10	legs	True	ludinos
31	6281	truth_conditions	distinct	NA	some	4	pink	10	ears	True	elleps
31	5837	truth_conditions	danger	NA	some	5	red	30	scales	True	blins
31	6210	truth_conditions	danger	NA	some	6	blue	90	ears	True	cheebas
31	4288	truth_conditions	irrelevant	NA	some	7	red	50	feathers	True	noobs
31	3411	truth_conditions	distinct	NA	some	8	purple	90	tails	True	taifels
31	2903	truth_conditions	danger	NA	some	9	gold	70	stripes	True	daiths
31	3525	truth_conditions	danger	NA	some	10	purple	50	feathers	True	lorches
31	4967	truth_conditions	irrelevant	NA	some	11	blue	30	teeth	True	thups
31	4472	truth_conditions	danger	NA	some	12	pink	90	teeth	True	krivels
31	2834	truth_conditions	distinct	NA	some	13	blue	50	scales	True	reesles
31	3018	truth_conditions	danger	NA	some	14	copper	70	spots	True	glippets
31	3861	truth_conditions	distinct	NA	some	15	green	90	teeth	True	zoovs
31	7153	truth_conditions	irrelevant	NA	some	16	orange	90	ears	True	kazzes
31	5057	truth_conditions	irrelevant	NA	some	17	yellow	10	scales	True	dorbs
31	5213	truth_conditions	irrelevant	NA	some	18	gold	70	spots	True	stups
31	2410	truth_conditions	irrelevant	NA	some	19	copper	90	fur	True	kweps
31	4502	truth_conditions	irrelevant	NA	some	20	silver	10	stripes	True	frams
31	3263	truth_conditions	distinct	NA	some	21	silver	30	legs	True	ackles
31	5562	truth_conditions	irrelevant	NA	some	22	pink	30	legs	True	feps
31	4297	truth_conditions	distinct	NA	some	23	gold	70	feathers	True	plovs
31	8251	truth_conditions	irrelevant	NA	some	24	green	50	tails	True	trufts
31	4266	truth_conditions	danger	NA	some	25	silver	50	fur	True	morseths
31	5712	truth_conditions	distinct	NA	some	26	yellow	30	fur	True	ollers
31	3126	truth_conditions	distinct	NA	some	27	red	70	spots	True	sapers
31	3867	truth_conditions	distinct	NA	some	28	copper	10	stripes	True	mooks
31	2939	truth_conditions	distinct	NA	some	29	orange	50	shells	True	luzaks
32	14854	implied_prevalence	distinct	0	most	NA	gold	NA	feathers	100	plovs
32	16948	implied_prevalence	danger	1	most	NA	orange	NA	tails	75	zorbs
32	11457	implied_prevalence	distinct	2	most	NA	yellow	NA	fur	75	ollers
32	8534	implied_prevalence	irrelevant	3	most	NA	pink	NA	legs	75	feps
32	11497	implied_prevalence	distinct	4	most	NA	red	NA	spots	75	sapers
32	8400	implied_prevalence	danger	5	most	NA	red	NA	scales	75	blins
32	8556	implied_prevalence	danger	6	most	NA	green	NA	shells	75	moxes
32	6029	implied_prevalence	irrelevant	7	most	NA	blue	NA	teeth	75	thups
32	10031	implied_prevalence	distinct	8	most	NA	blue	NA	scales	75	reesles
32	5659	implied_prevalence	irrelevant	9	most	NA	orange	NA	ears	75	kazzes
32	11733	implied_prevalence	danger	10	most	NA	gold	NA	stripes	75	daiths
32	5182	implied_prevalence	irrelevant	11	most	NA	yellow	NA	scales	75	dorbs
32	7113	implied_prevalence	distinct	12	most	NA	silver	NA	legs	75	ackles
32	5652	implied_prevalence	distinct	13	most	NA	purple	NA	tails	75	taifels
32	4961	implied_prevalence	distinct	14	most	NA	pink	NA	ears	75	elleps
32	5438	implied_prevalence	danger	15	most	NA	yellow	NA	legs	75	ludinos
32	6981	implied_prevalence	irrelevant	16	most	NA	copper	NA	fur	75	kweps
32	5374	implied_prevalence	irrelevant	17	most	NA	gold	NA	spots	75	stups
32	4723	implied_prevalence	danger	18	most	NA	purple	NA	feathers	75	lorches
32	6913	implied_prevalence	irrelevant	19	most	NA	purple	NA	shells	75	javs
32	4888	implied_prevalence	danger	20	most	NA	silver	NA	fur	75	morseths
32	5291	implied_prevalence	irrelevant	21	most	NA	green	NA	tails	75	trufts
32	9248	implied_prevalence	danger	22	most	NA	copper	NA	spots	75	glippets
32	8822	implied_prevalence	danger	23	most	NA	blue	NA	ears	75	cheebas
32	5465	implied_prevalence	irrelevant	24	most	NA	red	NA	feathers	75	noobs
32	4180	implied_prevalence	distinct	25	most	NA	orange	NA	shells	75	luzaks
32	4844	implied_prevalence	danger	26	most	NA	pink	NA	teeth	75	krivels
32	6464	implied_prevalence	distinct	27	most	NA	copper	NA	stripes	75	mooks
32	4219	implied_prevalence	distinct	28	most	NA	green	NA	teeth	75	zoovs
32	6611	implied_prevalence	irrelevant	29	most	NA	silver	NA	stripes	75	frams
33	12062	implied_prevalence	distinct	0	most	NA	copper	NA	stripes	85	mooks
33	11886	implied_prevalence	irrelevant	1	most	NA	silver	NA	stripes	88	frams
33	8513	implied_prevalence	irrelevant	2	most	NA	copper	NA	fur	95	kweps
33	9122	implied_prevalence	distinct	3	most	NA	blue	NA	scales	96	reesles
33	9468	implied_prevalence	danger	4	most	NA	gold	NA	stripes	98	daiths
33	7657	implied_prevalence	distinct	5	most	NA	pink	NA	ears	99	elleps
33	8718	implied_prevalence	danger	6	most	NA	copper	NA	spots	96	glippets
33	6421	implied_prevalence	danger	7	most	NA	green	NA	shells	99	moxes
33	8246	implied_prevalence	distinct	8	most	NA	green	NA	teeth	98	zoovs
33	9366	implied_prevalence	irrelevant	9	most	NA	blue	NA	teeth	90	thups
33	7944	implied_prevalence	danger	10	most	NA	silver	NA	fur	95	morseths
33	9189	implied_prevalence	danger	11	most	NA	blue	NA	ears	98	cheebas
33	9884	implied_prevalence	distinct	12	most	NA	silver	NA	legs	94	ackles
33	10063	implied_prevalence	irrelevant	13	most	NA	red	NA	feathers	94	noobs
33	6639	implied_prevalence	distinct	14	most	NA	yellow	NA	fur	97	ollers
33	6243	implied_prevalence	danger	15	most	NA	pink	NA	teeth	99	krivels
33	9393	implied_prevalence	irrelevant	16	most	NA	purple	NA	shells	85	javs
33	10666	implied_prevalence	distinct	17	most	NA	gold	NA	feathers	95	plovs
33	9024	implied_prevalence	irrelevant	18	most	NA	yellow	NA	scales	96	dorbs
33	9032	implied_prevalence	distinct	19	most	NA	orange	NA	shells	88	luzaks
33	7870	implied_prevalence	danger	20	most	NA	red	NA	scales	98	blins
33	6592	implied_prevalence	irrelevant	21	most	NA	orange	NA	ears	89	kazzes
33	8316	implied_prevalence	irrelevant	22	most	NA	pink	NA	legs	91	feps
33	6077	implied_prevalence	irrelevant	23	most	NA	green	NA	tails	99	trufts
33	8537	implied_prevalence	distinct	24	most	NA	red	NA	spots	88	sapers
33	6272	implied_prevalence	danger	25	most	NA	yellow	NA	legs	91	ludinos
33	11246	implied_prevalence	danger	26	most	NA	purple	NA	feathers	98	lorches
33	6975	implied_prevalence	distinct	27	most	NA	purple	NA	tails	93	taifels
33	6295	implied_prevalence	irrelevant	28	most	NA	gold	NA	spots	89	stups
33	6332	implied_prevalence	danger	29	most	NA	orange	NA	tails	95	zorbs
34	8396	implied_prevalence	irrelevant	0	some	NA	yellow	NA	scales	30	dorbs
34	4639	implied_prevalence	irrelevant	1	some	NA	copper	NA	fur	30	kweps
34	6240	implied_prevalence	distinct	2	some	NA	green	NA	teeth	30	zoovs
34	4879	implied_prevalence	irrelevant	3	some	NA	pink	NA	legs	30	feps
34	4305	implied_prevalence	irrelevant	4	some	NA	purple	NA	shells	30	javs
34	5766	implied_prevalence	danger	5	some	NA	gold	NA	stripes	30	daiths
34	4274	implied_prevalence	distinct	6	some	NA	pink	NA	ears	30	elleps
34	2630	implied_prevalence	distinct	7	some	NA	yellow	NA	fur	30	ollers
34	4729	implied_prevalence	irrelevant	8	some	NA	orange	NA	ears	30	kazzes
34	2743	implied_prevalence	danger	9	some	NA	red	NA	scales	30	blins
34	3736	implied_prevalence	danger	10	some	NA	copper	NA	spots	30	glippets
34	2824	implied_prevalence	danger	11	some	NA	silver	NA	fur	30	morseths
34	2392	implied_prevalence	danger	12	some	NA	blue	NA	ears	30	cheebas
34	2759	implied_prevalence	danger	13	some	NA	purple	NA	feathers	30	lorches
34	3361	implied_prevalence	distinct	14	some	NA	blue	NA	scales	30	reesles
34	2688	implied_prevalence	irrelevant	15	some	NA	green	NA	tails	30	trufts
34	2977	implied_prevalence	irrelevant	16	some	NA	blue	NA	teeth	30	thups
34	2855	implied_prevalence	danger	17	some	NA	orange	NA	tails	30	zorbs
34	2407	implied_prevalence	irrelevant	18	some	NA	silver	NA	stripes	30	frams
34	2728	implied_prevalence	distinct	19	some	NA	red	NA	spots	30	sapers
34	2352	implied_prevalence	danger	20	some	NA	green	NA	shells	30	moxes
34	2375	implied_prevalence	irrelevant	21	some	NA	gold	NA	spots	30	stups
34	3273	implied_prevalence	distinct	22	some	NA	copper	NA	stripes	30	mooks
34	2895	implied_prevalence	distinct	23	some	NA	silver	NA	legs	30	ackles
34	4655	implied_prevalence	distinct	24	some	NA	purple	NA	tails	30	taifels
34	3197	implied_prevalence	danger	25	some	NA	pink	NA	teeth	30	krivels
34	2419	implied_prevalence	irrelevant	26	some	NA	red	NA	feathers	30	noobs
34	3169	implied_prevalence	danger	27	some	NA	yellow	NA	legs	30	ludinos
34	5198	implied_prevalence	distinct	28	some	NA	orange	NA	shells	30	luzaks
34	2168	implied_prevalence	distinct	29	some	NA	gold	NA	feathers	30	plovs
35	18600	implied_prevalence	danger	0	generic	NA	yellow	NA	legs	10	ludinos
35	8965	implied_prevalence	irrelevant	1	generic	NA	orange	NA	ears	10	kazzes
35	5501	implied_prevalence	distinct	2	generic	NA	purple	NA	tails	2	taifels
35	17202	implied_prevalence	danger	3	generic	NA	gold	NA	stripes	4	daiths
35	12329	implied_prevalence	danger	4	generic	NA	orange	NA	tails	5	zorbs
35	5773	implied_prevalence	danger	5	generic	NA	pink	NA	teeth	1	krivels
35	10866	implied_prevalence	distinct	6	generic	NA	copper	NA	stripes	10	mooks
35	8505	implied_prevalence	irrelevant	7	generic	NA	red	NA	feathers	20	noobs
35	9900	implied_prevalence	distinct	8	generic	NA	silver	NA	legs	1	ackles
35	9776	implied_prevalence	distinct	9	generic	NA	blue	NA	scales	10	reesles
35	5108	implied_prevalence	danger	10	generic	NA	blue	NA	ears	2	cheebas
35	6951	implied_prevalence	irrelevant	11	generic	NA	purple	NA	shells	1	javs
35	9900	implied_prevalence	distinct	12	generic	NA	pink	NA	ears	10	elleps
35	6300	implied_prevalence	distinct	13	generic	NA	orange	NA	shells	5	luzaks
35	13691	implied_prevalence	danger	14	generic	NA	copper	NA	spots	5	glippets
35	5636	implied_prevalence	danger	15	generic	NA	purple	NA	feathers	10	lorches
35	4343	implied_prevalence	irrelevant	16	generic	NA	pink	NA	legs	1	feps
35	8847	implied_prevalence	danger	17	generic	NA	red	NA	scales	15	blins
35	7710	implied_prevalence	danger	18	generic	NA	green	NA	shells	10	moxes
35	5782	implied_prevalence	distinct	19	generic	NA	green	NA	teeth	3	zoovs
35	6220	implied_prevalence	irrelevant	20	generic	NA	copper	NA	fur	1	kweps
35	12948	implied_prevalence	irrelevant	21	generic	NA	yellow	NA	scales	10	dorbs
35	6603	implied_prevalence	distinct	22	generic	NA	red	NA	spots	20	sapers
35	9169	implied_prevalence	irrelevant	23	generic	NA	silver	NA	stripes	24	frams
35	8056	implied_prevalence	irrelevant	24	generic	NA	green	NA	tails	20	trufts
35	14568	implied_prevalence	danger	25	generic	NA	silver	NA	fur	10	morseths
35	4500	implied_prevalence	irrelevant	26	generic	NA	blue	NA	teeth	2	thups
35	8279	implied_prevalence	distinct	27	generic	NA	gold	NA	feathers	1	plovs
35	6119	implied_prevalence	irrelevant	28	generic	NA	gold	NA	spots	30	stups
35	6614	implied_prevalence	distinct	29	generic	NA	yellow	NA	fur	1	ollers
36	8229	truth_conditions	distinct	NA	some	0	copper	90	stripes	True	mooks
36	11963	truth_conditions	irrelevant	NA	some	1	silver	30	stripes	True	frams
36	4656	truth_conditions	irrelevant	NA	some	2	orange	10	ears	True	kazzes
36	4166	truth_conditions	irrelevant	NA	some	3	green	30	tails	True	trufts
36	5035	truth_conditions	danger	NA	some	4	orange	50	tails	True	zorbs
36	6320	truth_conditions	distinct	NA	some	5	red	10	spots	True	sapers
36	4828	truth_conditions	distinct	NA	some	6	pink	70	ears	True	elleps
36	5093	truth_conditions	distinct	NA	some	7	yellow	50	fur	True	ollers
36	4697	truth_conditions	irrelevant	NA	some	8	purple	90	shells	True	javs
36	4818	truth_conditions	irrelevant	NA	some	9	gold	10	spots	True	stups
36	40956	truth_conditions	distinct	NA	some	10	orange	30	shells	True	luzaks
36	5855	truth_conditions	danger	NA	some	11	red	30	scales	True	blins
36	3713	truth_conditions	irrelevant	NA	some	12	yellow	70	scales	True	dorbs
36	3983	truth_conditions	danger	NA	some	13	green	70	shells	True	moxes
36	3404	truth_conditions	distinct	NA	some	14	silver	30	legs	True	ackles
36	3873	truth_conditions	danger	NA	some	15	silver	10	fur	True	morseths
36	3655	truth_conditions	irrelevant	NA	some	16	copper	50	fur	True	kweps
36	3768	truth_conditions	danger	NA	some	17	pink	90	teeth	True	krivels
36	3436	truth_conditions	danger	NA	some	18	blue	50	ears	True	cheebas
36	4342	truth_conditions	danger	NA	some	19	gold	10	stripes	True	daiths
36	5281	truth_conditions	irrelevant	NA	some	20	pink	70	legs	True	feps
36	4318	truth_conditions	danger	NA	some	21	copper	70	spots	True	glippets
36	3536	truth_conditions	distinct	NA	some	22	purple	90	tails	True	taifels
36	3474	truth_conditions	danger	NA	some	23	purple	30	feathers	True	lorches
36	4448	truth_conditions	irrelevant	NA	some	24	blue	90	teeth	True	thups
36	3427	truth_conditions	distinct	NA	some	25	gold	10	feathers	True	plovs
36	5729	truth_conditions	danger	NA	some	26	yellow	90	legs	True	ludinos
36	3912	truth_conditions	distinct	NA	some	27	green	50	teeth	True	zoovs
36	4268	truth_conditions	distinct	NA	some	28	blue	70	scales	True	reesles
36	12641	truth_conditions	irrelevant	NA	some	29	red	50	feathers	True	noobs
37	14853	implied_prevalence	distinct	0	most	NA	red	NA	spots	87	sapers
37	8675	implied_prevalence	irrelevant	1	most	NA	green	NA	tails	90	trufts
37	25073	implied_prevalence	danger	2	most	NA	silver	NA	fur	100	morseths
37	7565	implied_prevalence	distinct	3	most	NA	pink	NA	ears	78	elleps
37	8351	implied_prevalence	irrelevant	4	most	NA	yellow	NA	scales	78	dorbs
37	8098	implied_prevalence	irrelevant	5	most	NA	silver	NA	stripes	45	frams
37	9959	implied_prevalence	distinct	6	most	NA	green	NA	teeth	89	zoovs
37	9282	implied_prevalence	irrelevant	7	most	NA	blue	NA	teeth	58	thups
37	17972	implied_prevalence	danger	8	most	NA	blue	NA	ears	45	cheebas
37	25101	implied_prevalence	distinct	9	most	NA	yellow	NA	fur	78	ollers
37	8046	implied_prevalence	irrelevant	10	most	NA	purple	NA	shells	57	javs
37	5427	implied_prevalence	irrelevant	11	most	NA	gold	NA	spots	68	stups
37	9899	implied_prevalence	danger	12	most	NA	gold	NA	stripes	56	daiths
37	7566	implied_prevalence	danger	13	most	NA	orange	NA	tails	54	zorbs
37	9295	implied_prevalence	distinct	14	most	NA	copper	NA	stripes	98	mooks
37	8120	implied_prevalence	distinct	15	most	NA	silver	NA	legs	89	ackles
37	8313	implied_prevalence	danger	16	most	NA	green	NA	shells	67	moxes
37	14276	implied_prevalence	distinct	17	most	NA	orange	NA	shells	34	luzaks
37	7330	implied_prevalence	irrelevant	18	most	NA	red	NA	feathers	65	noobs
37	10973	implied_prevalence	danger	19	most	NA	yellow	NA	legs	67	ludinos
37	31252	implied_prevalence	irrelevant	20	most	NA	orange	NA	ears	67	kazzes
37	32641	implied_prevalence	irrelevant	21	most	NA	copper	NA	fur	12	kweps
37	14489	implied_prevalence	distinct	22	most	NA	purple	NA	tails	45	taifels
37	8750	implied_prevalence	danger	23	most	NA	red	NA	scales	57	blins
37	4659	implied_prevalence	distinct	24	most	NA	gold	NA	feathers	89	plovs
37	6053	implied_prevalence	danger	25	most	NA	copper	NA	spots	79	glippets
37	4894	implied_prevalence	distinct	26	most	NA	blue	NA	scales	79	reesles
37	5224	implied_prevalence	danger	27	most	NA	purple	NA	feathers	79	lorches
37	7010	implied_prevalence	irrelevant	28	most	NA	pink	NA	legs	89	feps
37	27780	implied_prevalence	danger	29	most	NA	pink	NA	teeth	89	krivels
38	16308	truth_conditions	distinct	NA	some	0	red	30	spots	True	sapers
38	5699	truth_conditions	irrelevant	NA	some	1	copper	50	fur	True	kweps
38	4425	truth_conditions	distinct	NA	some	2	gold	30	feathers	True	plovs
38	3091	truth_conditions	danger	NA	some	3	blue	10	ears	True	cheebas
38	4058	truth_conditions	irrelevant	NA	some	4	gold	70	spots	True	stups
38	3441	truth_conditions	distinct	NA	some	5	green	50	teeth	True	zoovs
38	5036	truth_conditions	danger	NA	some	6	orange	50	tails	True	zorbs
38	3840	truth_conditions	distinct	NA	some	7	silver	10	legs	True	ackles
38	4309	truth_conditions	distinct	NA	some	8	copper	90	stripes	True	mooks
38	3380	truth_conditions	danger	NA	some	9	gold	90	stripes	True	daiths
38	4325	truth_conditions	irrelevant	NA	some	10	blue	10	teeth	True	thups
38	3557	truth_conditions	irrelevant	NA	some	11	red	70	feathers	True	noobs
38	4437	truth_conditions	distinct	NA	some	12	pink	70	ears	True	elleps
38	6385	truth_conditions	danger	NA	some	13	pink	70	teeth	True	krivels
38	3797	truth_conditions	distinct	NA	some	14	purple	70	tails	True	taifels
38	3189	truth_conditions	distinct	NA	some	15	blue	90	scales	True	reesles
38	5227	truth_conditions	danger	NA	some	16	purple	50	feathers	True	lorches
38	7425	truth_conditions	irrelevant	NA	some	17	silver	50	stripes	True	frams
38	3413	truth_conditions	irrelevant	NA	some	18	yellow	90	scales	True	dorbs
38	3133	truth_conditions	danger	NA	some	19	copper	90	spots	True	glippets
38	4187	truth_conditions	irrelevant	NA	some	20	green	90	tails	True	trufts
38	6141	truth_conditions	irrelevant	NA	some	21	orange	10	ears	True	kazzes
38	4320	truth_conditions	irrelevant	NA	some	22	purple	30	shells	True	javs
38	4674	truth_conditions	distinct	NA	some	23	yellow	50	fur	True	ollers
38	5935	truth_conditions	danger	NA	some	24	green	30	shells	True	moxes
38	4673	truth_conditions	danger	NA	some	25	silver	10	fur	True	morseths
38	9359	truth_conditions	irrelevant	NA	some	26	pink	30	legs	True	feps
38	2893	truth_conditions	danger	NA	some	27	yellow	70	legs	True	ludinos
38	13803	truth_conditions	distinct	NA	some	28	orange	10	shells	True	luzaks
38	3354	truth_conditions	danger	NA	some	29	red	30	scales	True	blins
39	2435	truth_conditions	irrelevant	NA	most	0	green	70	tails	True	trufts
39	1993	truth_conditions	irrelevant	NA	most	1	copper	10	fur	False	kweps
39	1559	truth_conditions	distinct	NA	most	2	pink	70	ears	True	elleps
39	3443	truth_conditions	irrelevant	NA	most	3	yellow	10	scales	False	dorbs
39	1351	truth_conditions	distinct	NA	most	4	copper	10	stripes	False	mooks
39	1627	truth_conditions	distinct	NA	most	5	silver	70	legs	True	ackles
39	1086	truth_conditions	danger	NA	most	6	yellow	10	legs	False	ludinos
39	4182	truth_conditions	distinct	NA	most	7	gold	50	feathers	True	plovs
39	1473	truth_conditions	irrelevant	NA	most	8	purple	90	shells	True	javs
39	4212	truth_conditions	danger	NA	most	9	blue	50	ears	True	cheebas
39	1950	truth_conditions	irrelevant	NA	most	10	blue	50	teeth	True	thups
39	2984	truth_conditions	distinct	NA	most	11	green	30	teeth	False	zoovs
39	1977	truth_conditions	irrelevant	NA	most	12	pink	30	legs	False	feps
39	1422	truth_conditions	danger	NA	most	13	copper	30	spots	False	glippets
39	1560	truth_conditions	danger	NA	most	14	red	90	scales	True	blins
39	2548	truth_conditions	irrelevant	NA	most	15	silver	30	stripes	False	frams
39	1662	truth_conditions	distinct	NA	most	16	orange	50	shells	True	luzaks
39	1543	truth_conditions	distinct	NA	most	17	red	90	spots	True	sapers
39	1750	truth_conditions	distinct	NA	most	18	blue	10	scales	False	reesles
39	1419	truth_conditions	danger	NA	most	19	green	90	shells	True	moxes
39	1519	truth_conditions	danger	NA	most	20	pink	70	teeth	True	krivels
39	2930	truth_conditions	distinct	NA	most	21	yellow	90	fur	True	ollers
39	1792	truth_conditions	danger	NA	most	22	purple	70	feathers	True	lorches
39	1505	truth_conditions	danger	NA	most	23	gold	30	stripes	False	daiths
39	1597	truth_conditions	irrelevant	NA	most	24	red	70	feathers	True	noobs
39	1827	truth_conditions	danger	NA	most	25	silver	10	fur	False	morseths
39	1898	truth_conditions	distinct	NA	most	26	purple	30	tails	False	taifels
39	1827	truth_conditions	danger	NA	most	27	orange	50	tails	True	zorbs
39	1522	truth_conditions	irrelevant	NA	most	28	gold	50	spots	True	stups
39	1149	truth_conditions	irrelevant	NA	most	29	orange	90	ears	True	kazzes
40	12214	truth_conditions	distinct	NA	generic	0	purple	30	tails	True	taifels
40	6761	truth_conditions	irrelevant	NA	generic	1	copper	10	fur	True	kweps
40	5558	truth_conditions	distinct	NA	generic	2	blue	10	scales	True	reesles
40	7504	truth_conditions	distinct	NA	generic	3	gold	70	feathers	True	plovs
40	5917	truth_conditions	danger	NA	generic	4	blue	90	ears	True	cheebas
40	4751	truth_conditions	danger	NA	generic	5	gold	30	stripes	True	daiths
40	5468	truth_conditions	danger	NA	generic	6	yellow	50	legs	True	ludinos
40	3422	truth_conditions	irrelevant	NA	generic	7	purple	90	shells	True	javs
40	5344	truth_conditions	distinct	NA	generic	8	silver	10	legs	True	ackles
40	4372	truth_conditions	danger	NA	generic	9	red	70	scales	True	blins
40	6226	truth_conditions	distinct	NA	generic	10	yellow	50	fur	True	ollers
40	2453	truth_conditions	distinct	NA	generic	11	red	90	spots	True	sapers
40	5184	truth_conditions	danger	NA	generic	12	orange	10	tails	True	zorbs
40	2539	truth_conditions	irrelevant	NA	generic	13	yellow	30	scales	True	dorbs
40	3526	truth_conditions	irrelevant	NA	generic	14	silver	70	stripes	True	frams
40	6990	truth_conditions	danger	NA	generic	15	green	70	shells	True	moxes
40	2305	truth_conditions	distinct	NA	generic	16	orange	90	shells	True	luzaks
40	4991	truth_conditions	distinct	NA	generic	17	copper	50	stripes	True	mooks
40	11229	truth_conditions	danger	NA	generic	18	purple	30	feathers	True	lorches
40	2899	truth_conditions	irrelevant	NA	generic	19	gold	50	spots	True	stups
40	2319	truth_conditions	distinct	NA	generic	20	pink	70	ears	True	elleps
40	2775	truth_conditions	irrelevant	NA	generic	21	blue	70	teeth	True	thups
40	2898	truth_conditions	danger	NA	generic	22	copper	90	spots	True	glippets
40	4050	truth_conditions	irrelevant	NA	generic	23	red	30	feathers	True	noobs
40	2046	truth_conditions	irrelevant	NA	generic	24	orange	50	ears	True	kazzes
40	3385	truth_conditions	danger	NA	generic	25	silver	10	fur	True	morseths
40	3076	truth_conditions	danger	NA	generic	26	pink	50	teeth	True	krivels
40	3047	truth_conditions	irrelevant	NA	generic	27	green	10	tails	True	trufts
40	2527	truth_conditions	distinct	NA	generic	28	green	30	teeth	True	zoovs
40	3660	truth_conditions	irrelevant	NA	generic	29	pink	90	legs	True	feps
41	8599	implied_prevalence	danger	0	generic	NA	red	NA	scales	100	blins
41	4383	implied_prevalence	danger	1	generic	NA	purple	NA	feathers	100	lorches
41	3967	implied_prevalence	irrelevant	2	generic	NA	pink	NA	legs	100	feps
41	4048	implied_prevalence	distinct	3	generic	NA	red	NA	spots	100	sapers
41	3417	implied_prevalence	irrelevant	4	generic	NA	silver	NA	stripes	100	frams
41	3527	implied_prevalence	danger	5	generic	NA	yellow	NA	legs	100	ludinos
41	2584	implied_prevalence	distinct	6	generic	NA	orange	NA	shells	100	luzaks
41	4120	implied_prevalence	danger	7	generic	NA	copper	NA	spots	100	glippets
41	2393	implied_prevalence	distinct	8	generic	NA	silver	NA	legs	100	ackles
41	2864	implied_prevalence	irrelevant	9	generic	NA	yellow	NA	scales	100	dorbs
41	2815	implied_prevalence	danger	10	generic	NA	silver	NA	fur	100	morseths
41	2113	implied_prevalence	distinct	11	generic	NA	blue	NA	scales	100	reesles
41	2472	implied_prevalence	danger	12	generic	NA	green	NA	shells	100	moxes
41	3264	implied_prevalence	distinct	13	generic	NA	purple	NA	tails	100	taifels
41	2416	implied_prevalence	danger	14	generic	NA	orange	NA	tails	100	zorbs
41	2439	implied_prevalence	danger	15	generic	NA	gold	NA	stripes	100	daiths
41	2432	implied_prevalence	irrelevant	16	generic	NA	copper	NA	fur	100	kweps
41	2704	implied_prevalence	distinct	17	generic	NA	green	NA	teeth	100	zoovs
41	2600	implied_prevalence	irrelevant	18	generic	NA	blue	NA	teeth	100	thups
41	2720	implied_prevalence	distinct	19	generic	NA	yellow	NA	fur	100	ollers
41	2432	implied_prevalence	distinct	20	generic	NA	pink	NA	ears	100	elleps
41	2304	implied_prevalence	distinct	21	generic	NA	copper	NA	stripes	100	mooks
41	2640	implied_prevalence	irrelevant	22	generic	NA	green	NA	tails	100	trufts
41	1857	implied_prevalence	irrelevant	23	generic	NA	orange	NA	ears	100	kazzes
41	2246	implied_prevalence	danger	24	generic	NA	blue	NA	ears	100	cheebas
41	3312	implied_prevalence	irrelevant	25	generic	NA	red	NA	feathers	100	noobs
41	1936	implied_prevalence	danger	26	generic	NA	pink	NA	teeth	100	krivels
41	2376	implied_prevalence	irrelevant	27	generic	NA	purple	NA	shells	100	javs
41	2408	implied_prevalence	irrelevant	28	generic	NA	gold	NA	spots	100	stups
41	2176	implied_prevalence	distinct	29	generic	NA	gold	NA	feathers	100	plovs
42	4862	truth_conditions	irrelevant	NA	most	0	red	90	feathers	True	noobs
42	6090	truth_conditions	distinct	NA	most	1	yellow	70	fur	True	ollers
42	2950	truth_conditions	distinct	NA	most	2	gold	50	feathers	False	plovs
42	2920	truth_conditions	distinct	NA	most	3	red	50	spots	False	sapers
42	2711	truth_conditions	irrelevant	NA	most	4	orange	50	ears	False	kazzes
42	1817	truth_conditions	distinct	NA	most	5	pink	70	ears	True	elleps
42	3392	truth_conditions	distinct	NA	most	6	blue	30	scales	False	reesles
42	3643	truth_conditions	danger	NA	most	7	pink	50	teeth	False	krivels
42	2042	truth_conditions	danger	NA	most	8	red	90	scales	True	blins
42	2578	truth_conditions	danger	NA	most	9	blue	70	ears	True	cheebas
42	2160	truth_conditions	irrelevant	NA	most	10	yellow	30	scales	False	dorbs
42	1736	truth_conditions	danger	NA	most	11	green	30	shells	False	moxes
42	1527	truth_conditions	danger	NA	most	12	copper	30	spots	False	glippets
42	2011	truth_conditions	irrelevant	NA	most	13	green	90	tails	True	trufts
42	1559	truth_conditions	distinct	NA	most	14	copper	30	stripes	False	mooks
42	1818	truth_conditions	danger	NA	most	15	yellow	10	legs	False	ludinos
42	1775	truth_conditions	danger	NA	most	16	gold	10	stripes	False	daiths
42	1684	truth_conditions	irrelevant	NA	most	17	copper	70	fur	True	kweps
42	1462	truth_conditions	distinct	NA	most	18	green	10	teeth	False	zoovs
42	1587	truth_conditions	irrelevant	NA	most	19	blue	10	teeth	False	thups
42	1688	truth_conditions	danger	NA	most	20	purple	70	feathers	True	lorches
42	1980	truth_conditions	irrelevant	NA	most	21	gold	50	spots	False	stups
42	1445	truth_conditions	distinct	NA	most	22	silver	10	legs	False	ackles
42	1687	truth_conditions	distinct	NA	most	23	purple	90	tails	True	taifels
42	1581	truth_conditions	irrelevant	NA	most	24	purple	30	shells	False	javs
42	2803	truth_conditions	danger	NA	most	25	orange	50	tails	False	zorbs
42	2582	truth_conditions	distinct	NA	most	26	orange	90	shells	True	luzaks
42	1344	truth_conditions	danger	NA	most	27	silver	90	fur	True	morseths
42	2191	truth_conditions	irrelevant	NA	most	28	silver	70	stripes	True	frams
42	1607	truth_conditions	irrelevant	NA	most	29	pink	10	legs	False	feps
43	7122	truth_conditions	distinct	NA	generic	0	purple	90	tails	True	taifels
43	5124	truth_conditions	irrelevant	NA	generic	1	orange	90	ears	True	kazzes
43	6970	truth_conditions	irrelevant	NA	generic	2	copper	10	fur	False	kweps
43	4559	truth_conditions	danger	NA	generic	3	purple	70	feathers	True	lorches
43	4391	truth_conditions	irrelevant	NA	generic	4	yellow	50	scales	True	dorbs
43	4080	truth_conditions	distinct	NA	generic	5	orange	10	shells	False	luzaks
43	2960	truth_conditions	danger	NA	generic	6	copper	10	spots	False	glippets
43	5156	truth_conditions	distinct	NA	generic	7	yellow	30	fur	False	ollers
43	4284	truth_conditions	danger	NA	generic	8	silver	70	fur	True	morseths
43	7965	truth_conditions	distinct	NA	generic	9	green	70	teeth	True	zoovs
43	6971	truth_conditions	danger	NA	generic	10	blue	90	ears	True	cheebas
43	2747	truth_conditions	distinct	NA	generic	11	blue	10	scales	False	reesles
43	4027	truth_conditions	distinct	NA	generic	12	silver	90	legs	True	ackles
43	2640	truth_conditions	irrelevant	NA	generic	13	green	10	tails	False	trufts
43	5725	truth_conditions	danger	NA	generic	14	gold	50	stripes	True	daiths
43	4028	truth_conditions	irrelevant	NA	generic	15	blue	90	teeth	True	thups
43	7775	truth_conditions	danger	NA	generic	16	orange	30	tails	False	zorbs
43	5578	truth_conditions	distinct	NA	generic	17	red	30	spots	False	sapers
43	3085	truth_conditions	distinct	NA	generic	18	gold	50	feathers	True	plovs
43	2450	truth_conditions	irrelevant	NA	generic	19	silver	70	stripes	True	frams
43	3288	truth_conditions	irrelevant	NA	generic	20	purple	50	shells	True	javs
43	2797	truth_conditions	irrelevant	NA	generic	21	gold	30	spots	False	stups
43	4487	truth_conditions	distinct	NA	generic	22	copper	50	stripes	True	mooks
43	3656	truth_conditions	irrelevant	NA	generic	23	pink	30	legs	True	feps
43	4718	truth_conditions	distinct	NA	generic	24	pink	70	ears	True	elleps
43	8639	truth_conditions	irrelevant	NA	generic	25	red	70	feathers	True	noobs
43	3708	truth_conditions	danger	NA	generic	26	pink	50	teeth	True	krivels
43	3717	truth_conditions	danger	NA	generic	27	yellow	30	legs	False	ludinos
43	2968	truth_conditions	danger	NA	generic	28	green	10	shells	False	moxes
43	3307	truth_conditions	danger	NA	generic	29	red	90	scales	True	blins
44	73785	implied_prevalence	distinct	0	some	NA	yellow	NA	fur	20	ollers
44	12181	implied_prevalence	irrelevant	1	some	NA	green	NA	tails	0	trufts
44	12238	implied_prevalence	danger	2	some	NA	yellow	NA	legs	2	ludinos
44	10887	implied_prevalence	danger	3	some	NA	gold	NA	stripes	40	daiths
44	12572	implied_prevalence	danger	4	some	NA	green	NA	shells	20	moxes
44	7939	implied_prevalence	danger	5	some	NA	red	NA	scales	5	blins
44	13265	implied_prevalence	distinct	6	some	NA	silver	NA	legs	10	ackles
44	16569	implied_prevalence	distinct	7	some	NA	gold	NA	feathers	70	plovs
44	8468	implied_prevalence	irrelevant	8	some	NA	orange	NA	ears	90	kazzes
44	11894	implied_prevalence	danger	9	some	NA	silver	NA	fur	5	morseths
44	10626	implied_prevalence	danger	10	some	NA	purple	NA	feathers	2	lorches
44	6807	implied_prevalence	irrelevant	11	some	NA	pink	NA	legs	90	feps
44	6320	implied_prevalence	irrelevant	12	some	NA	yellow	NA	scales	90	dorbs
44	6502	implied_prevalence	danger	13	some	NA	orange	NA	tails	2	zorbs
44	9158	implied_prevalence	danger	14	some	NA	copper	NA	spots	5	glippets
44	7202	implied_prevalence	irrelevant	15	some	NA	blue	NA	teeth	2	thups
44	9833	implied_prevalence	danger	16	some	NA	pink	NA	teeth	1	krivels
44	8155	implied_prevalence	danger	17	some	NA	blue	NA	ears	1	cheebas
44	10987	implied_prevalence	distinct	18	some	NA	copper	NA	stripes	40	mooks
44	11041	implied_prevalence	irrelevant	19	some	NA	red	NA	feathers	70	noobs
44	8441	implied_prevalence	distinct	20	some	NA	purple	NA	tails	80	taifels
44	10642	implied_prevalence	irrelevant	21	some	NA	purple	NA	shells	40	javs
44	7653	implied_prevalence	irrelevant	22	some	NA	gold	NA	spots	90	stups
44	7889	implied_prevalence	distinct	23	some	NA	orange	NA	shells	80	luzaks
44	8688	implied_prevalence	distinct	24	some	NA	red	NA	spots	90	sapers
44	6253	implied_prevalence	irrelevant	25	some	NA	silver	NA	stripes	80	frams
44	8721	implied_prevalence	irrelevant	26	some	NA	copper	NA	fur	80	kweps
44	8474	implied_prevalence	distinct	27	some	NA	blue	NA	scales	70	reesles
44	4639	implied_prevalence	distinct	28	some	NA	green	NA	teeth	70	zoovs
44	8773	implied_prevalence	distinct	29	some	NA	pink	NA	ears	65	elleps
45	6440	truth_conditions	irrelevant	NA	generic	0	green	90	tails	True	trufts
45	5738	truth_conditions	distinct	NA	generic	1	gold	10	feathers	True	plovs
45	2519	truth_conditions	irrelevant	NA	generic	2	gold	30	spots	True	stups
45	5847	truth_conditions	danger	NA	generic	3	red	10	scales	False	blins
45	2816	truth_conditions	danger	NA	generic	4	purple	30	feathers	True	lorches
45	2688	truth_conditions	danger	NA	generic	5	green	90	shells	True	moxes
45	2785	truth_conditions	distinct	NA	generic	6	purple	30	tails	True	taifels
45	3943	truth_conditions	irrelevant	NA	generic	7	red	70	feathers	True	noobs
45	3990	truth_conditions	irrelevant	NA	generic	8	silver	10	stripes	False	frams
45	3113	truth_conditions	danger	NA	generic	9	gold	50	stripes	True	daiths
45	2536	truth_conditions	danger	NA	generic	10	pink	70	teeth	True	krivels
45	2726	truth_conditions	irrelevant	NA	generic	11	purple	90	shells	True	javs
45	2305	truth_conditions	distinct	NA	generic	12	green	90	teeth	True	zoovs
45	1960	truth_conditions	distinct	NA	generic	13	silver	50	legs	True	ackles
45	3055	truth_conditions	distinct	NA	generic	14	red	90	spots	True	sapers
