"","workerid","rt","trial_type","stim_type","stim_part","stim_determiner","trialNum","stim_color","stim_prevalence","response","stim_category"
"1",0,10776,"truth_conditions","danger-distinct","teeth","generic",0,"green",50,"True","zoovs"
"2",0,4979,"truth_conditions","danger-distinct","tails","generic",1,"green",70,"False","trufts"
"3",0,2506,"truth_conditions","nondistinctive","tails","generic",2,"orange",30,"False","zorbs"
"4",0,3144,"truth_conditions","bare","ears","generic",3,"orange",50,"False","kazzes"
"5",0,4713,"truth_conditions","nondistinctive","fur","generic",4,"copper",70,"False","kweps"
"6",0,2284,"truth_conditions","nondistinctive","scales","generic",5,"blue",30,"False","reesles"
"7",0,1768,"truth_conditions","bare","stripes","generic",6,"silver",30,"False","frams"
"8",0,2685,"truth_conditions","bare","shells","generic",7,"orange",30,"False","luzaks"
"9",0,2244,"truth_conditions","danger-distinct","ears","generic",8,"pink",70,"False","elleps"
"10",0,1171,"truth_conditions","nondistinctive","legs","generic",9,"silver",70,"False","ackles"
"11",0,1654,"truth_conditions","bare","scales","generic",10,"yellow",10,"False","dorbs"
"12",0,2848,"truth_conditions","danger-distinct","legs","generic",11,"pink",30,"False","feps"
"13",0,3328,"truth_conditions","nondistinctive","feathers","generic",12,"gold",50,"False","plovs"
"14",0,1803,"truth_conditions","bare","feathers","generic",13,"purple",10,"False","lorches"
"15",0,1672,"truth_conditions","danger-distinct","spots","generic",14,"copper",70,"False","glippets"
"16",0,2002,"truth_conditions","bare","legs","generic",15,"yellow",90,"False","ludinos"
"17",0,1556,"truth_conditions","danger-distinct","scales","generic",16,"red",50,"False","blins"
"18",0,1039,"truth_conditions","bare","fur","generic",17,"yellow",10,"False","ollers"
"19",0,2636,"truth_conditions","nondistinctive","spots","generic",18,"gold",90,"True","stups"
"20",0,1226,"truth_conditions","nondistinctive","teeth","generic",19,"blue",10,"False","thups"
"21",0,1261,"truth_conditions","nondistinctive","stripes","generic",20,"gold",70,"False","daiths"
"22",0,1566,"truth_conditions","bare","tails","generic",21,"purple",90,"True","taifels"
"23",0,1357,"truth_conditions","bare","teeth","generic",22,"pink",30,"False","krivels"
"24",0,980,"truth_conditions","nondistinctive","shells","generic",23,"purple",50,"False","javs"
"25",0,1029,"truth_conditions","nondistinctive","ears","generic",24,"blue",50,"False","cheebas"
"26",0,1587,"truth_conditions","danger-distinct","shells","generic",25,"green",10,"False","moxes"
"27",0,1649,"truth_conditions","bare","spots","generic",26,"red",10,"False","sapers"
"28",0,3038,"truth_conditions","danger-distinct","feathers","generic",27,"red",90,"True","noobs"
"29",0,1063,"truth_conditions","danger-distinct","stripes","generic",28,"copper",90,"True","mooks"
"30",0,1377,"truth_conditions","danger-distinct","fur","generic",29,"silver",90,"True","morseths"
"31",1,11067,"truth_conditions","bare","fur","generic",0,"silver",10,"False","morseths"
"32",1,17987,"truth_conditions","danger-distinct","stripes","generic",1,"gold",50,"False","daiths"
"33",1,8087,"truth_conditions","danger-distinct","spots","generic",2,"red",50,"False","sapers"
"34",1,4592,"truth_conditions","nondistinctive","ears","generic",3,"pink",30,"False","elleps"
"35",1,3440,"truth_conditions","bare","tails","generic",4,"purple",90,"True","taifels"
"36",1,3336,"truth_conditions","bare","stripes","generic",5,"copper",10,"False","mooks"
"37",1,1888,"truth_conditions","bare","teeth","generic",6,"blue",50,"False","thups"
"38",1,2657,"truth_conditions","danger-distinct","scales","generic",7,"red",90,"True","blins"
"39",1,2248,"truth_conditions","nondistinctive","shells","generic",8,"green",50,"False","moxes"
"40",1,1798,"truth_conditions","bare","spots","generic",9,"gold",30,"False","stups"
"41",1,1681,"truth_conditions","bare","legs","generic",10,"yellow",70,"True","ludinos"
"42",1,1916,"truth_conditions","nondistinctive","legs","generic",11,"silver",30,"False","ackles"
"43",1,2804,"truth_conditions","nondistinctive","fur","generic",12,"yellow",70,"True","ollers"
"44",1,2328,"truth_conditions","danger-distinct","legs","generic",13,"pink",10,"False","feps"
"45",1,1864,"truth_conditions","nondistinctive","tails","generic",14,"orange",30,"False","zorbs"
"46",1,1808,"truth_conditions","bare","scales","generic",15,"yellow",90,"True","dorbs"
"47",1,2064,"truth_conditions","bare","shells","generic",16,"orange",90,"True","luzaks"
"48",1,1927,"truth_conditions","bare","ears","generic",17,"blue",30,"False","cheebas"
"49",1,1809,"truth_conditions","nondistinctive","teeth","generic",18,"green",50,"False","zoovs"
"50",1,1529,"truth_conditions","danger-distinct","feathers","generic",19,"purple",90,"True","lorches"
"51",1,1944,"truth_conditions","danger-distinct","ears","generic",20,"orange",10,"False","kazzes"
"52",1,1623,"truth_conditions","nondistinctive","feathers","generic",21,"gold",70,"True","plovs"
"53",1,3551,"truth_conditions","danger-distinct","tails","generic",22,"green",70,"True","trufts"
"54",1,1560,"truth_conditions","nondistinctive","scales","generic",23,"blue",10,"False","reesles"
"55",1,1483,"truth_conditions","danger-distinct","fur","generic",24,"copper",50,"False","kweps"
"56",1,1484,"truth_conditions","danger-distinct","shells","generic",25,"purple",70,"True","javs"
"57",1,1671,"truth_conditions","nondistinctive","spots","generic",26,"copper",10,"False","glippets"
"58",1,1860,"truth_conditions","bare","feathers","generic",27,"red",30,"False","noobs"
"59",1,2108,"truth_conditions","danger-distinct","teeth","generic",28,"pink",70,"True","krivels"
"60",1,1511,"truth_conditions","nondistinctive","stripes","generic",29,"silver",90,"True","frams"
"61",2,13725,"truth_conditions","nondistinctive","fur","generic",0,"copper",50,"True","kweps"
"62",2,2584,"truth_conditions","nondistinctive","teeth","generic",1,"pink",30,"True","krivels"
"63",2,2753,"truth_conditions","danger-distinct","scales","generic",2,"yellow",70,"False","dorbs"
"64",2,5394,"truth_conditions","nondistinctive","ears","generic",3,"orange",70,"True","kazzes"
"65",2,7613,"truth_conditions","danger-distinct","ears","generic",4,"blue",70,"True","cheebas"
"66",2,2214,"truth_conditions","bare","shells","generic",5,"orange",50,"False","luzaks"
"67",2,2865,"truth_conditions","danger-distinct","teeth","generic",6,"blue",10,"True","thups"
"68",2,2547,"truth_conditions","nondistinctive","tails","generic",7,"green",90,"True","trufts"
"69",2,1742,"truth_conditions","bare","scales","generic",8,"blue",90,"True","reesles"
"70",2,4690,"truth_conditions","bare","fur","generic",9,"yellow",50,"False","ollers"
"71",2,1820,"truth_conditions","bare","legs","generic",10,"pink",30,"False","feps"
"72",2,4045,"truth_conditions","danger-distinct","shells","generic",11,"green",90,"True","moxes"
"73",2,4568,"truth_conditions","bare","teeth","generic",12,"green",10,"False","zoovs"
"74",2,4323,"truth_conditions","nondistinctive","shells","generic",13,"purple",50,"False","javs"
"75",2,4290,"truth_conditions","danger-distinct","fur","generic",14,"silver",50,"True","morseths"
"76",2,3940,"truth_conditions","danger-distinct","stripes","generic",15,"copper",30,"True","mooks"
"77",2,5274,"truth_conditions","bare","feathers","generic",16,"red",10,"False","noobs"
"78",2,28547,"truth_conditions","danger-distinct","legs","generic",17,"silver",90,"True","ackles"
"79",2,2154,"truth_conditions","nondistinctive","stripes","generic",18,"silver",90,"True","frams"
"80",2,1860,"truth_conditions","bare","tails","generic",19,"purple",70,"True","taifels"
"81",2,2175,"truth_conditions","danger-distinct","feathers","generic",20,"gold",70,"True","plovs"
"82",2,1684,"truth_conditions","bare","ears","generic",21,"pink",30,"False","elleps"
"83",2,1604,"truth_conditions","danger-distinct","tails","generic",22,"orange",10,"True","zorbs"
"84",2,6742,"truth_conditions","nondistinctive","legs","generic",23,"yellow",70,"True","ludinos"
"85",2,1408,"truth_conditions","bare","stripes","generic",24,"gold",30,"False","daiths"
"86",2,2887,"truth_conditions","nondistinctive","spots","generic",25,"red",10,"False","sapers"
"87",2,3147,"truth_conditions","nondistinctive","scales","generic",26,"red",90,"True","blins"
"88",2,1780,"truth_conditions","nondistinctive","feathers","generic",27,"purple",10,"False","lorches"
"89",2,1545,"truth_conditions","bare","spots","generic",28,"gold",30,"False","stups"
"90",2,2052,"truth_conditions","danger-distinct","spots","generic",29,"copper",50,"True","glippets"
"91",3,14232,"truth_conditions","danger-distinct","spots","generic",0,"copper",30,"True","glippets"
"92",3,8650,"truth_conditions","nondistinctive","teeth","generic",1,"pink",50,"True","krivels"
"93",3,4450,"truth_conditions","danger-distinct","scales","generic",2,"red",70,"True","blins"
"94",3,3901,"truth_conditions","nondistinctive","shells","generic",3,"green",90,"True","moxes"
"95",3,6566,"truth_conditions","bare","stripes","generic",4,"silver",30,"False","frams"
"96",3,3187,"truth_conditions","nondistinctive","ears","generic",5,"orange",50,"True","kazzes"
"97",3,5689,"truth_conditions","danger-distinct","shells","generic",6,"orange",10,"False","luzaks"
"98",3,4570,"truth_conditions","bare","scales","generic",7,"blue",90,"True","reesles"
"99",3,1657,"truth_conditions","bare","tails","generic",8,"purple",70,"True","taifels"
"100",3,12019,"truth_conditions","danger-distinct","fur","generic",9,"copper",30,"False","kweps"
"101",3,1807,"truth_conditions","bare","spots","generic",10,"gold",50,"True","stups"
"102",3,3017,"truth_conditions","danger-distinct","teeth","generic",11,"green",50,"True","zoovs"
"103",3,6749,"truth_conditions","nondistinctive","scales","generic",12,"yellow",70,"True","dorbs"
"104",3,2117,"truth_conditions","danger-distinct","legs","generic",13,"pink",90,"True","feps"
"105",3,2870,"truth_conditions","nondistinctive","feathers","generic",14,"gold",30,"False","plovs"
"106",3,1150,"truth_conditions","nondistinctive","spots","generic",15,"red",90,"True","sapers"
"107",3,1356,"truth_conditions","nondistinctive","tails","generic",16,"green",70,"True","trufts"
"108",3,1937,"truth_conditions","danger-distinct","stripes","generic",17,"copper",70,"True","mooks"
"109",3,1380,"truth_conditions","bare","fur","generic",18,"silver",50,"True","morseths"
"110",3,2270,"truth_conditions","danger-distinct","ears","generic",19,"pink",10,"False","elleps"
"111",3,2502,"truth_conditions","bare","ears","generic",20,"blue",10,"False","cheebas"
"112",3,1375,"truth_conditions","bare","feathers","generic",21,"purple",10,"False","lorches"
"113",3,2163,"truth_conditions","nondistinctive","fur","generic",22,"yellow",30,"False","ollers"
"114",3,3394,"truth_conditions","danger-distinct","tails","generic",23,"orange",30,"False","zorbs"
"115",3,1780,"truth_conditions","danger-distinct","feathers","generic",24,"red",90,"True","noobs"
"116",3,1276,"truth_conditions","nondistinctive","legs","generic",25,"silver",50,"True","ackles"
"117",3,1627,"truth_conditions","bare","shells","generic",26,"purple",10,"False","javs"
"118",3,1023,"truth_conditions","bare","teeth","generic",27,"blue",10,"False","thups"
"119",3,1333,"truth_conditions","bare","legs","generic",28,"yellow",90,"True","ludinos"
"120",3,2994,"truth_conditions","nondistinctive","stripes","generic",29,"gold",70,"True","daiths"
"121",4,5771,"truth_conditions","bare","spots","generic",0,"gold",10,"False","stups"
"122",4,13230,"truth_conditions","nondistinctive","fur","generic",1,"copper",10,"False","kweps"
"123",4,5953,"truth_conditions","danger-distinct","ears","generic",2,"blue",10,"True","cheebas"
"124",4,2934,"truth_conditions","nondistinctive","spots","generic",3,"red",50,"False","sapers"
"125",4,4168,"truth_conditions","danger-distinct","stripes","generic",4,"copper",70,"True","mooks"
"126",4,3860,"truth_conditions","nondistinctive","teeth","generic",5,"pink",30,"False","krivels"
"127",4,14062,"truth_conditions","danger-distinct","spots","generic",6,"copper",90,"True","glippets"
"128",4,2786,"truth_conditions","danger-distinct","teeth","generic",7,"blue",30,"True","thups"
"129",4,1625,"truth_conditions","danger-distinct","legs","generic",8,"yellow",70,"True","ludinos"
"130",4,4382,"truth_conditions","bare","scales","generic",9,"yellow",90,"False","dorbs"
"131",4,2803,"truth_conditions","danger-distinct","scales","generic",10,"red",70,"True","blins"
"132",4,3577,"truth_conditions","nondistinctive","stripes","generic",11,"gold",50,"False","daiths"
"133",4,1435,"truth_conditions","danger-distinct","tails","generic",12,"purple",30,"True","taifels"
"134",4,5533,"truth_conditions","bare","fur","generic",13,"silver",50,"False","morseths"
"135",4,2055,"truth_conditions","danger-distinct","shells","generic",14,"green",30,"True","moxes"
"136",4,5609,"truth_conditions","nondistinctive","scales","generic",15,"blue",90,"False","reesles"
"137",4,11650,"truth_conditions","nondistinctive","ears","generic",16,"pink",90,"False","elleps"
"138",4,7166,"truth_conditions","bare","teeth","generic",17,"green",70,"False","zoovs"
"139",4,2577,"truth_conditions","nondistinctive","shells","generic",18,"purple",50,"False","javs"
"140",4,3528,"truth_conditions","bare","feathers","generic",19,"purple",10,"False","lorches"
"141",4,2822,"truth_conditions","nondistinctive","feathers","generic",20,"gold",30,"False","plovs"
"142",4,2547,"truth_conditions","bare","shells","generic",21,"orange",50,"False","luzaks"
"143",4,2170,"truth_conditions","nondistinctive","tails","generic",22,"orange",90,"False","zorbs"
"144",4,2468,"truth_conditions","bare","ears","generic",23,"orange",50,"False","kazzes"
"145",4,2265,"truth_conditions","bare","tails","generic",24,"green",70,"False","trufts"
"146",4,1546,"truth_conditions","bare","legs","generic",25,"silver",10,"False","ackles"
"147",4,1473,"truth_conditions","danger-distinct","fur","generic",26,"yellow",10,"True","ollers"
"148",4,1195,"truth_conditions","danger-distinct","feathers","generic",27,"red",30,"True","noobs"
"149",4,2108,"truth_conditions","bare","stripes","generic",28,"silver",70,"False","frams"
"150",4,3723,"truth_conditions","nondistinctive","legs","generic",29,"pink",90,"False","feps"
"151",5,10245,"truth_conditions","danger-distinct","ears","generic",0,"blue",10,"True","cheebas"
"152",5,5565,"truth_conditions","nondistinctive","teeth","generic",1,"pink",50,"True","krivels"
"153",5,3719,"truth_conditions","danger-distinct","teeth","generic",2,"green",30,"True","zoovs"
"154",5,3031,"truth_conditions","bare","fur","generic",3,"copper",90,"True","kweps"
"155",5,3647,"truth_conditions","danger-distinct","feathers","generic",4,"purple",70,"True","lorches"
"156",5,3119,"truth_conditions","bare","ears","generic",5,"pink",90,"True","elleps"
"157",5,6349,"truth_conditions","danger-distinct","stripes","generic",6,"copper",70,"True","mooks"
"158",5,3664,"truth_conditions","bare","stripes","generic",7,"silver",10,"True","frams"
"159",5,7812,"truth_conditions","nondistinctive","ears","generic",8,"orange",30,"True","kazzes"
"160",5,5856,"truth_conditions","danger-distinct","fur","generic",9,"yellow",70,"True","ollers"
"161",5,5591,"truth_conditions","danger-distinct","legs","generic",10,"pink",50,"True","feps"
"162",5,5352,"truth_conditions","danger-distinct","scales","generic",11,"red",10,"True","blins"
"163",5,5222,"truth_conditions","nondistinctive","legs","generic",12,"silver",50,"True","ackles"
"164",5,3118,"truth_conditions","bare","spots","generic",13,"copper",70,"True","glippets"
"165",5,3632,"truth_conditions","bare","tails","generic",14,"purple",90,"True","taifels"
"166",5,4381,"truth_conditions","nondistinctive","shells","generic",15,"orange",30,"True","luzaks"
"167",5,3474,"truth_conditions","bare","feathers","generic",16,"red",10,"True","noobs"
"168",5,2909,"truth_conditions","bare","teeth","generic",17,"blue",90,"True","thups"
"169",5,4150,"truth_conditions","nondistinctive","stripes","generic",18,"gold",30,"True","daiths"
"170",5,4711,"truth_conditions","bare","shells","generic",19,"purple",70,"True","javs"
"171",5,4048,"truth_conditions","nondistinctive","scales","generic",20,"yellow",50,"True","dorbs"
"172",5,4295,"truth_conditions","bare","legs","generic",21,"yellow",30,"True","ludinos"
"173",5,6031,"truth_conditions","danger-distinct","shells","generic",22,"green",50,"True","moxes"
"174",5,4943,"truth_conditions","danger-distinct","tails","generic",23,"green",70,"True","trufts"
"175",5,5822,"truth_conditions","nondistinctive","fur","generic",24,"silver",90,"True","morseths"
"176",5,5471,"truth_conditions","nondistinctive","tails","generic",25,"orange",90,"True","zorbs"
"177",5,5647,"truth_conditions","danger-distinct","spots","generic",26,"red",10,"True","sapers"
"178",5,5457,"truth_conditions","nondistinctive","spots","generic",27,"gold",30,"True","stups"
"179",5,4267,"truth_conditions","bare","scales","generic",28,"blue",10,"True","reesles"
"180",5,4112,"truth_conditions","nondistinctive","feathers","generic",29,"gold",50,"True","plovs"
"181",6,16345,"truth_conditions","danger-distinct","fur","generic",0,"silver",30,"True","morseths"
"182",6,3958,"truth_conditions","bare","spots","generic",1,"copper",50,"True","glippets"
"183",6,9508,"truth_conditions","nondistinctive","teeth","generic",2,"blue",50,"True","thups"
"184",6,5194,"truth_conditions","bare","legs","generic",3,"yellow",30,"True","ludinos"
"185",6,14595,"truth_conditions","danger-distinct","ears","generic",4,"orange",90,"True","kazzes"
"186",6,42328,"truth_conditions","nondistinctive","tails","generic",5,"orange",70,"True","zorbs"
"187",6,3680,"truth_conditions","nondistinctive","stripes","generic",6,"copper",30,"True","mooks"
"188",6,5448,"truth_conditions","bare","shells","generic",7,"purple",10,"False","javs"
"189",6,3951,"truth_conditions","danger-distinct","teeth","generic",8,"pink",50,"True","krivels"
"190",6,12944,"truth_conditions","danger-distinct","spots","generic",9,"red",50,"True","sapers"
"191",6,5556,"truth_conditions","nondistinctive","spots","generic",10,"gold",90,"True","stups"
"192",6,4798,"truth_conditions","danger-distinct","legs","generic",11,"silver",90,"True","ackles"
"193",6,24106,"truth_conditions","nondistinctive","legs","generic",12,"pink",70,"True","feps"
"194",6,5260,"truth_conditions","bare","feathers","generic",13,"red",10,"False","noobs"
"195",6,3385,"truth_conditions","bare","scales","generic",14,"blue",50,"True","reesles"
"196",6,4168,"truth_conditions","bare","stripes","generic",15,"silver",50,"True","frams"
"197",6,6451,"truth_conditions","danger-distinct","stripes","generic",16,"gold",70,"True","daiths"
"198",6,23274,"truth_conditions","nondistinctive","feathers","generic",17,"gold",30,"True","plovs"
"199",6,55037,"truth_conditions","bare","ears","generic",18,"pink",70,"True","elleps"
"200",6,4160,"truth_conditions","danger-distinct","scales","generic",19,"red",10,"False","blins"
"201",6,2993,"truth_conditions","bare","teeth","generic",20,"green",10,"False","zoovs"
"202",6,5456,"truth_conditions","nondistinctive","ears","generic",21,"blue",10,"False","cheebas"
"203",6,2745,"truth_conditions","bare","fur","generic",22,"copper",30,"True","kweps"
"204",6,6067,"truth_conditions","nondistinctive","shells","generic",23,"orange",70,"True","luzaks"
"205",6,4599,"truth_conditions","danger-distinct","shells","generic",24,"green",90,"True","moxes"
"206",6,4089,"truth_conditions","danger-distinct","feathers","generic",25,"purple",90,"True","lorches"
"207",6,9484,"truth_conditions","bare","tails","generic",26,"purple",10,"False","taifels"
"208",6,20670,"truth_conditions","nondistinctive","fur","generic",27,"yellow",90,"True","ollers"
"209",6,3177,"truth_conditions","nondistinctive","scales","generic",28,"yellow",30,"True","dorbs"
"210",6,8397,"truth_conditions","danger-distinct","tails","generic",29,"green",70,"True","trufts"
"211",7,32290,"truth_conditions","nondistinctive","feathers","generic",0,"purple",10,"True","lorches"
"212",7,5420,"truth_conditions","bare","legs","generic",1,"silver",50,"True","ackles"
"213",7,10663,"truth_conditions","danger-distinct","feathers","generic",2,"red",90,"True","noobs"
"214",7,4399,"truth_conditions","nondistinctive","fur","generic",3,"silver",90,"True","morseths"
"215",7,8656,"truth_conditions","danger-distinct","spots","generic",4,"red",10,"False","sapers"
"216",7,3752,"truth_conditions","nondistinctive","tails","generic",5,"purple",30,"False","taifels"
"217",7,5959,"truth_conditions","bare","scales","generic",6,"blue",10,"True","reesles"
"218",7,2712,"truth_conditions","bare","teeth","generic",7,"blue",10,"True","thups"
"219",7,14209,"truth_conditions","nondistinctive","stripes","generic",8,"silver",30,"False","frams"
"220",7,3960,"truth_conditions","danger-distinct","fur","generic",9,"yellow",90,"True","ollers"
"221",7,5487,"truth_conditions","danger-distinct","stripes","generic",10,"gold",30,"True","daiths"
"222",7,13640,"truth_conditions","nondistinctive","scales","generic",11,"yellow",90,"True","dorbs"
"223",7,2847,"truth_conditions","danger-distinct","tails","generic",12,"green",10,"True","trufts"
"224",7,7985,"truth_conditions","nondistinctive","spots","generic",13,"gold",50,"False","stups"
"225",7,4567,"truth_conditions","bare","fur","generic",14,"copper",70,"True","kweps"
"226",7,2319,"truth_conditions","danger-distinct","shells","generic",15,"orange",70,"True","luzaks"
"227",7,4816,"truth_conditions","bare","stripes","generic",16,"copper",70,"True","mooks"
"228",7,3168,"truth_conditions","bare","feathers","generic",17,"gold",30,"False","plovs"
"229",7,7438,"truth_conditions","danger-distinct","teeth","generic",18,"pink",70,"True","krivels"
"230",7,2496,"truth_conditions","danger-distinct","ears","generic",19,"pink",90,"True","elleps"
"231",7,4272,"truth_conditions","nondistinctive","ears","generic",20,"blue",70,"False","cheebas"
"232",7,3096,"truth_conditions","bare","shells","generic",21,"green",90,"True","moxes"
"233",7,3463,"truth_conditions","bare","tails","generic",22,"orange",50,"True","zorbs"
"234",7,10104,"truth_conditions","nondistinctive","teeth","generic",23,"green",50,"False","zoovs"
"235",7,2601,"truth_conditions","nondistinctive","shells","generic",24,"purple",50,"False","javs"
"236",7,2295,"truth_conditions","bare","spots","generic",25,"copper",50,"True","glippets"
"237",7,4376,"truth_conditions","nondistinctive","legs","generic",26,"yellow",10,"False","ludinos"
"238",7,3807,"truth_conditions","danger-distinct","scales","generic",27,"red",30,"False","blins"
"239",7,8584,"truth_conditions","danger-distinct","legs","generic",28,"pink",30,"True","feps"
"240",7,2896,"truth_conditions","bare","ears","generic",29,"orange",70,"True","kazzes"
"241",8,27450,"truth_conditions","nondistinctive","shells","generic",0,"orange",10,"True","luzaks"
"242",8,10788,"truth_conditions","nondistinctive","feathers","generic",1,"gold",70,"True","plovs"
"243",8,12888,"truth_conditions","nondistinctive","stripes","generic",2,"silver",90,"True","frams"
"244",8,18287,"truth_conditions","danger-distinct","feathers","generic",3,"red",50,"True","noobs"
"245",8,12119,"truth_conditions","danger-distinct","shells","generic",4,"green",70,"True","moxes"
"246",8,12213,"truth_conditions","bare","fur","generic",5,"copper",70,"True","kweps"
"247",8,14841,"truth_conditions","bare","feathers","generic",6,"purple",30,"True","lorches"
"248",8,16580,"truth_conditions","bare","teeth","generic",7,"green",50,"True","zoovs"
"249",8,7736,"truth_conditions","bare","scales","generic",8,"blue",90,"True","reesles"
"250",8,12368,"truth_conditions","danger-distinct","legs","generic",9,"silver",10,"True","ackles"
"251",8,9328,"truth_conditions","nondistinctive","spots","generic",10,"red",50,"True","sapers"
"252",8,13368,"truth_conditions","nondistinctive","ears","generic",11,"orange",90,"True","kazzes"
"253",8,11519,"truth_conditions","danger-distinct","spots","generic",12,"copper",10,"True","glippets"
"254",8,9960,"truth_conditions","danger-distinct","ears","generic",13,"pink",30,"True","elleps"
"255",8,11320,"truth_conditions","bare","shells","generic",14,"purple",50,"True","javs"
"256",8,8463,"truth_conditions","nondistinctive","tails","generic",15,"purple",30,"True","taifels"
"257",8,4024,"truth_conditions","bare","ears","generic",16,"blue",90,"True","cheebas"
"258",8,9096,"truth_conditions","nondistinctive","scales","generic",17,"yellow",70,"True","dorbs"
"259",8,15791,"truth_conditions","nondistinctive","legs","generic",18,"pink",30,"True","feps"
"260",8,4399,"truth_conditions","bare","stripes","generic",19,"copper",70,"True","mooks"
"261",8,9823,"truth_conditions","danger-distinct","stripes","generic",20,"gold",10,"True","daiths"
"262",8,5264,"truth_conditions","bare","spots","generic",21,"gold",30,"True","stups"
"263",8,9528,"truth_conditions","danger-distinct","scales","generic",22,"red",70,"True","blins"
"264",8,15760,"truth_conditions","nondistinctive","fur","generic",23,"yellow",90,"True","ollers"
"265",8,18552,"truth_conditions","bare","legs","generic",24,"yellow",50,"True","ludinos"
"266",8,7327,"truth_conditions","nondistinctive","teeth","generic",25,"blue",10,"True","thups"
"267",8,25350,"truth_conditions","danger-distinct","fur","generic",26,"silver",90,"True","morseths"
"268",8,29136,"truth_conditions","danger-distinct","tails","generic",27,"green",10,"True","trufts"
"269",8,5215,"truth_conditions","danger-distinct","teeth","generic",28,"pink",30,"True","krivels"
"270",8,14960,"truth_conditions","bare","tails","generic",29,"orange",50,"True","zorbs"
"271",9,9268,"truth_conditions","bare","shells","generic",0,"green",30,"True","moxes"
"272",9,13894,"truth_conditions","danger-distinct","teeth","generic",1,"green",50,"True","zoovs"
"273",9,8452,"truth_conditions","bare","ears","generic",2,"blue",50,"True","cheebas"
"274",9,13131,"truth_conditions","bare","teeth","generic",3,"pink",10,"False","krivels"
"275",9,9557,"truth_conditions","danger-distinct","feathers","generic",4,"red",30,"True","noobs"
"276",9,9459,"truth_conditions","nondistinctive","spots","generic",5,"red",10,"True","sapers"
"277",9,6033,"truth_conditions","bare","scales","generic",6,"yellow",10,"False","dorbs"
"278",9,5527,"truth_conditions","bare","stripes","generic",7,"gold",50,"True","daiths"
"279",9,8516,"truth_conditions","nondistinctive","tails","generic",8,"green",70,"True","trufts"
"280",9,9886,"truth_conditions","danger-distinct","tails","generic",9,"orange",70,"True","zorbs"
"281",9,6844,"truth_conditions","bare","fur","generic",10,"copper",70,"True","kweps"
"282",9,10538,"truth_conditions","nondistinctive","shells","generic",11,"orange",70,"True","luzaks"
"283",9,11815,"truth_conditions","nondistinctive","ears","generic",12,"orange",90,"True","kazzes"
"284",9,11935,"truth_conditions","nondistinctive","fur","generic",13,"yellow",10,"False","ollers"
"285",9,10858,"truth_conditions","nondistinctive","legs","generic",14,"silver",90,"True","ackles"
"286",9,8141,"truth_conditions","nondistinctive","feathers","generic",15,"gold",70,"True","plovs"
"287",9,6036,"truth_conditions","bare","spots","generic",16,"gold",50,"True","stups"
"288",9,9392,"truth_conditions","danger-distinct","ears","generic",17,"pink",50,"True","elleps"
"289",9,12018,"truth_conditions","danger-distinct","stripes","generic",18,"copper",30,"True","mooks"
"290",9,15478,"truth_conditions","nondistinctive","scales","generic",19,"blue",90,"True","reesles"
"291",9,12556,"truth_conditions","nondistinctive","stripes","generic",20,"silver",30,"True","frams"
"292",9,8695,"truth_conditions","nondistinctive","teeth","generic",21,"blue",90,"True","thups"
"293",9,15049,"truth_conditions","danger-distinct","fur","generic",22,"silver",30,"True","morseths"
"294",9,6033,"truth_conditions","bare","tails","generic",23,"purple",30,"True","taifels"
"295",9,7140,"truth_conditions","bare","legs","generic",24,"pink",10,"False","feps"
"296",9,7609,"truth_conditions","danger-distinct","legs","generic",25,"yellow",70,"True","ludinos"
"297",9,9722,"truth_conditions","danger-distinct","spots","generic",26,"copper",90,"True","glippets"
"298",9,6408,"truth_conditions","bare","feathers","generic",27,"purple",90,"True","lorches"
"299",9,8077,"truth_conditions","danger-distinct","shells","generic",28,"purple",50,"True","javs"
"300",9,13324,"truth_conditions","danger-distinct","scales","generic",29,"red",10,"True","blins"
"301",10,10264,"truth_conditions","danger-distinct","stripes","generic",0,"silver",50,"True","frams"
"302",10,4893,"truth_conditions","bare","stripes","generic",1,"gold",90,"True","daiths"
"303",10,6088,"truth_conditions","danger-distinct","scales","generic",2,"red",30,"True","blins"
"304",10,3424,"truth_conditions","nondistinctive","spots","generic",3,"gold",10,"True","stups"
"305",10,4648,"truth_conditions","danger-distinct","spots","generic",4,"copper",10,"True","glippets"
"306",10,6391,"truth_conditions","nondistinctive","scales","generic",5,"blue",50,"True","reesles"
"307",10,2512,"truth_conditions","nondistinctive","teeth","generic",6,"blue",30,"True","thups"
"308",10,2064,"truth_conditions","nondistinctive","feathers","generic",7,"red",30,"True","noobs"
"309",10,3592,"truth_conditions","nondistinctive","tails","generic",8,"orange",50,"True","zorbs"
"310",10,2144,"truth_conditions","nondistinctive","stripes","generic",9,"copper",10,"True","mooks"
"311",10,2072,"truth_conditions","bare","tails","generic",10,"purple",10,"True","taifels"
"312",10,2687,"truth_conditions","danger-distinct","fur","generic",11,"silver",30,"True","morseths"
"313",10,2121,"truth_conditions","nondistinctive","ears","generic",12,"blue",10,"True","cheebas"
"314",10,1599,"truth_conditions","bare","scales","generic",13,"yellow",70,"True","dorbs"
"315",10,1631,"truth_conditions","bare","shells","generic",14,"orange",30,"True","luzaks"
"316",10,1624,"truth_conditions","nondistinctive","shells","generic",15,"purple",90,"True","javs"
"317",10,1952,"truth_conditions","bare","teeth","generic",16,"green",30,"True","zoovs"
"318",10,2335,"truth_conditions","danger-distinct","ears","generic",17,"pink",90,"True","elleps"
"319",10,1704,"truth_conditions","danger-distinct","teeth","generic",18,"pink",90,"True","krivels"
"320",10,1617,"truth_conditions","danger-distinct","shells","generic",19,"green",70,"True","moxes"
"321",10,1056,"truth_conditions","nondistinctive","legs","generic",20,"yellow",50,"True","ludinos"
"322",10,1751,"truth_conditions","nondistinctive","fur","generic",21,"yellow",70,"True","ollers"
"323",10,3673,"truth_conditions","danger-distinct","legs","generic",22,"silver",50,"True","ackles"
"324",10,1263,"truth_conditions","danger-distinct","tails","generic",23,"green",90,"True","trufts"
"325",10,2305,"truth_conditions","bare","feathers","generic",24,"purple",70,"True","lorches"
"326",10,2184,"truth_conditions","bare","ears","generic",25,"orange",50,"True","kazzes"
"327",10,1888,"truth_conditions","bare","legs","generic",26,"pink",10,"True","feps"
"328",10,2336,"truth_conditions","danger-distinct","feathers","generic",27,"gold",90,"True","plovs"
"329",10,2128,"truth_conditions","bare","fur","generic",28,"copper",70,"True","kweps"
"330",10,1327,"truth_conditions","bare","spots","generic",29,"red",70,"True","sapers"
"331",11,10649,"truth_conditions","danger-distinct","spots","generic",0,"gold",10,"True","stups"
"332",11,6974,"truth_conditions","bare","tails","generic",1,"purple",50,"False","taifels"
"333",11,9295,"truth_conditions","nondistinctive","teeth","generic",2,"green",50,"False","zoovs"
"334",11,11648,"truth_conditions","nondistinctive","legs","generic",3,"pink",70,"False","feps"
"335",11,6616,"truth_conditions","bare","stripes","generic",4,"silver",50,"False","frams"
"336",11,3751,"truth_conditions","bare","teeth","generic",5,"pink",10,"False","krivels"
"337",11,10080,"truth_conditions","nondistinctive","spots","generic",6,"copper",90,"False","glippets"
"338",11,5024,"truth_conditions","bare","shells","generic",7,"orange",90,"False","luzaks"
"339",11,10896,"truth_conditions","danger-distinct","ears","generic",8,"orange",90,"True","kazzes"
"340",11,3815,"truth_conditions","bare","legs","generic",9,"yellow",30,"False","ludinos"
"341",11,4088,"truth_conditions","bare","fur","generic",10,"silver",30,"False","morseths"
"342",11,6961,"truth_conditions","danger-distinct","legs","generic",11,"silver",30,"True","ackles"
"343",11,9336,"truth_conditions","danger-distinct","fur","generic",12,"yellow",10,"True","ollers"
"344",11,4279,"truth_conditions","bare","spots","generic",13,"red",10,"False","sapers"
"345",11,8496,"truth_conditions","danger-distinct","feathers","generic",14,"gold",70,"True","plovs"
"346",11,6983,"truth_conditions","nondistinctive","shells","generic",15,"purple",30,"False","javs"
"347",11,5704,"truth_conditions","danger-distinct","teeth","generic",16,"blue",90,"True","thups"
"348",11,6905,"truth_conditions","danger-distinct","tails","generic",17,"orange",90,"True","zorbs"
"349",11,9015,"truth_conditions","nondistinctive","stripes","generic",18,"copper",30,"False","mooks"
"350",11,7143,"truth_conditions","nondistinctive","ears","generic",19,"pink",90,"False","elleps"
"351",11,3856,"truth_conditions","bare","scales","generic",20,"yellow",30,"False","dorbs"
"352",11,9648,"truth_conditions","nondistinctive","tails","generic",21,"green",10,"False","trufts"
"353",11,4391,"truth_conditions","bare","feathers","generic",22,"red",50,"False","noobs"
"354",11,8712,"truth_conditions","nondistinctive","fur","generic",23,"copper",70,"False","kweps"
"355",11,9631,"truth_conditions","danger-distinct","shells","generic",24,"green",50,"True","moxes"
"356",11,6401,"truth_conditions","danger-distinct","stripes","generic",25,"gold",50,"True","daiths"
"357",11,8607,"truth_conditions","danger-distinct","scales","generic",26,"blue",70,"True","reesles"
"358",11,7193,"truth_conditions","nondistinctive","feathers","generic",27,"purple",70,"False","lorches"
"359",11,4528,"truth_conditions","bare","ears","generic",28,"blue",10,"False","cheebas"
"360",11,4944,"truth_conditions","nondistinctive","scales","generic",29,"red",70,"False","blins"
"361",12,12306,"truth_conditions","danger-distinct","stripes","generic",0,"gold",90,"True","daiths"
"362",12,10106,"truth_conditions","nondistinctive","shells","generic",1,"purple",10,"True","javs"
"363",12,5345,"truth_conditions","danger-distinct","teeth","generic",2,"pink",30,"True","krivels"
"364",12,3627,"truth_conditions","nondistinctive","teeth","generic",3,"blue",70,"True","thups"
"365",12,2776,"truth_conditions","bare","legs","generic",4,"yellow",10,"True","ludinos"
"366",12,4908,"truth_conditions","nondistinctive","scales","generic",5,"blue",30,"True","reesles"
"367",12,5157,"truth_conditions","bare","feathers","generic",6,"red",50,"True","noobs"
"368",12,4820,"truth_conditions","nondistinctive","tails","generic",7,"green",30,"True","trufts"
"369",12,3046,"truth_conditions","nondistinctive","fur","generic",8,"yellow",10,"True","ollers"
"370",12,4298,"truth_conditions","danger-distinct","legs","generic",9,"silver",50,"True","ackles"
"371",12,3434,"truth_conditions","bare","shells","generic",10,"green",50,"True","moxes"
"372",12,3990,"truth_conditions","nondistinctive","stripes","generic",11,"copper",90,"True","mooks"
"373",12,3766,"truth_conditions","danger-distinct","fur","generic",12,"copper",70,"True","kweps"
"374",12,2196,"truth_conditions","bare","fur","generic",13,"silver",30,"True","morseths"
"375",12,1828,"truth_conditions","bare","stripes","generic",14,"silver",90,"True","frams"
"376",12,8301,"truth_conditions","danger-distinct","scales","generic",15,"yellow",30,"True","dorbs"
"377",12,2564,"truth_conditions","bare","tails","generic",16,"orange",10,"True","zorbs"
"378",12,3852,"truth_conditions","bare","scales","generic",17,"red",90,"True","blins"
"379",12,4903,"truth_conditions","danger-distinct","feathers","generic",18,"purple",70,"True","lorches"
"380",12,3253,"truth_conditions","nondistinctive","ears","generic",19,"blue",70,"True","cheebas"
"381",12,2123,"truth_conditions","bare","ears","generic",20,"pink",50,"True","elleps"
"382",12,4802,"truth_conditions","danger-distinct","ears","generic",21,"orange",10,"True","kazzes"
"383",12,3074,"truth_conditions","danger-distinct","tails","generic",22,"purple",70,"True","taifels"
"384",12,2416,"truth_conditions","danger-distinct","shells","generic",23,"orange",10,"True","luzaks"
"385",12,2878,"truth_conditions","nondistinctive","legs","generic",24,"pink",50,"True","feps"
"386",12,2558,"truth_conditions","danger-distinct","spots","generic",25,"copper",50,"True","glippets"
"387",12,3676,"truth_conditions","nondistinctive","spots","generic",26,"red",90,"True","sapers"
"388",12,1946,"truth_conditions","bare","spots","generic",27,"gold",90,"True","stups"
"389",12,3760,"truth_conditions","nondistinctive","feathers","generic",28,"gold",70,"True","plovs"
"390",12,2679,"truth_conditions","bare","teeth","generic",29,"green",30,"True","zoovs"
"391",13,6400,"truth_conditions","bare","feathers","generic",0,"gold",30,"False","plovs"
"392",13,10712,"truth_conditions","nondistinctive","ears","generic",1,"pink",10,"False","elleps"
"393",13,3704,"truth_conditions","bare","stripes","generic",2,"gold",70,"True","daiths"
"394",13,8161,"truth_conditions","nondistinctive","legs","generic",3,"yellow",90,"True","ludinos"
"395",13,2570,"truth_conditions","bare","teeth","generic",4,"pink",90,"True","krivels"
"396",13,3083,"truth_conditions","bare","ears","generic",5,"orange",90,"True","kazzes"
"397",13,6156,"truth_conditions","nondistinctive","teeth","generic",6,"blue",70,"True","thups"
"398",13,6375,"truth_conditions","danger-distinct","tails","generic",7,"green",50,"True","trufts"
"399",13,6338,"truth_conditions","danger-distinct","stripes","generic",8,"copper",50,"True","mooks"
"400",13,5721,"truth_conditions","danger-distinct","scales","generic",9,"yellow",50,"True","dorbs"
"401",13,5139,"truth_conditions","danger-distinct","feathers","generic",10,"red",30,"True","noobs"
"402",13,5642,"truth_conditions","nondistinctive","feathers","generic",11,"purple",50,"False","lorches"
"403",13,3191,"truth_conditions","bare","tails","generic",12,"orange",30,"False","zorbs"
"404",13,10676,"truth_conditions","danger-distinct","legs","generic",13,"silver",70,"True","ackles"
"405",13,3107,"truth_conditions","nondistinctive","stripes","generic",14,"silver",10,"False","frams"
"406",13,2559,"truth_conditions","bare","legs","generic",15,"pink",30,"False","feps"
"407",13,13357,"truth_conditions","nondistinctive","tails","generic",16,"purple",50,"False","taifels"
"408",13,2744,"truth_conditions","nondistinctive","scales","generic",17,"blue",30,"False","reesles"
"409",13,8083,"truth_conditions","danger-distinct","ears","generic",18,"blue",30,"True","cheebas"
"410",13,2586,"truth_conditions","danger-distinct","shells","generic",19,"orange",70,"True","luzaks"
"411",13,1599,"truth_conditions","bare","scales","generic",20,"red",10,"False","blins"
"412",13,1871,"truth_conditions","bare","shells","generic",21,"purple",90,"True","javs"
"413",13,4864,"truth_conditions","danger-distinct","teeth","generic",22,"green",10,"True","zoovs"
"414",13,3050,"truth_conditions","bare","spots","generic",23,"red",90,"True","sapers"
"415",13,4702,"truth_conditions","danger-distinct","spots","generic",24,"gold",70,"True","stups"
"416",13,4521,"truth_conditions","bare","fur","generic",25,"copper",10,"False","kweps"
"417",13,6142,"truth_conditions","nondistinctive","shells","generic",26,"green",50,"False","moxes"
"418",13,3332,"truth_conditions","nondistinctive","spots","generic",27,"copper",10,"False","glippets"
"419",13,3613,"truth_conditions","nondistinctive","fur","generic",28,"yellow",90,"True","ollers"
"420",13,3964,"truth_conditions","danger-distinct","fur","generic",29,"silver",70,"True","morseths"
"421",14,13091,"truth_conditions","danger-distinct","scales","generic",0,"yellow",30,"True","dorbs"
"422",14,9667,"truth_conditions","danger-distinct","legs","generic",1,"yellow",10,"True","ludinos"
"423",14,11014,"truth_conditions","danger-distinct","fur","generic",2,"yellow",10,"True","ollers"
"424",14,10321,"truth_conditions","danger-distinct","feathers","generic",3,"red",90,"True","noobs"
"425",14,11560,"truth_conditions","nondistinctive","stripes","generic",4,"copper",70,"True","mooks"
"426",14,10902,"truth_conditions","nondistinctive","tails","generic",5,"purple",90,"True","taifels"
"427",14,9120,"truth_conditions","nondistinctive","scales","generic",6,"blue",30,"True","reesles"
"428",14,4367,"truth_conditions","bare","feathers","generic",7,"gold",10,"True","plovs"
"429",14,7681,"truth_conditions","nondistinctive","feathers","generic",8,"purple",50,"True","lorches"
"430",14,7639,"truth_conditions","nondistinctive","shells","generic",9,"purple",50,"True","javs"
"431",14,7632,"truth_conditions","danger-distinct","shells","generic",10,"orange",90,"True","luzaks"
"432",14,8248,"truth_conditions","nondistinctive","teeth","generic",11,"pink",70,"True","krivels"
"433",14,4312,"truth_conditions","bare","stripes","generic",12,"silver",30,"True","frams"
"434",14,11072,"truth_conditions","danger-distinct","stripes","generic",13,"gold",30,"True","daiths"
"435",14,9136,"truth_conditions","danger-distinct","ears","generic",14,"blue",90,"True","cheebas"
"436",14,3895,"truth_conditions","bare","scales","generic",15,"red",50,"True","blins"
"437",14,8737,"truth_conditions","nondistinctive","legs","generic",16,"silver",30,"True","ackles"
"438",14,6183,"truth_conditions","bare","ears","generic",17,"orange",70,"True","kazzes"
"439",14,3561,"truth_conditions","bare","shells","generic",18,"green",90,"True","moxes"
"440",14,7319,"truth_conditions","danger-distinct","tails","generic",19,"orange",70,"True","zorbs"
"441",14,9217,"truth_conditions","danger-distinct","teeth","generic",20,"green",50,"True","zoovs"
"442",14,3599,"truth_conditions","bare","teeth","generic",21,"blue",10,"True","thups"
"443",14,4903,"truth_conditions","bare","spots","generic",22,"copper",30,"True","glippets"
"444",14,7007,"truth_conditions","nondistinctive","fur","generic",23,"silver",10,"True","morseths"
"445",14,4281,"truth_conditions","bare","legs","generic",24,"pink",90,"True","feps"
"446",14,8214,"truth_conditions","nondistinctive","spots","generic",25,"gold",50,"True","stups"
"447",14,3944,"truth_conditions","bare","fur","generic",26,"copper",70,"True","kweps"
"448",14,7329,"truth_conditions","danger-distinct","spots","generic",27,"red",70,"True","sapers"
"449",14,3679,"truth_conditions","bare","tails","generic",28,"green",10,"True","trufts"
"450",14,5904,"truth_conditions","nondistinctive","ears","generic",29,"pink",50,"True","elleps"
"451",15,14022,"truth_conditions","nondistinctive","feathers","generic",0,"purple",50,"True","lorches"
"452",15,12140,"truth_conditions","nondistinctive","shells","generic",1,"purple",50,"True","javs"
"453",15,13183,"truth_conditions","nondistinctive","tails","generic",2,"orange",90,"True","zorbs"
"454",15,5205,"truth_conditions","bare","ears","generic",3,"blue",10,"True","cheebas"
"455",15,8780,"truth_conditions","nondistinctive","fur","generic",4,"copper",10,"True","kweps"
"456",15,10692,"truth_conditions","danger-distinct","stripes","generic",5,"copper",30,"True","mooks"
"457",15,4439,"truth_conditions","bare","feathers","generic",6,"red",90,"True","noobs"
"458",15,5382,"truth_conditions","nondistinctive","legs","generic",7,"yellow",70,"True","ludinos"
"459",15,3766,"truth_conditions","bare","tails","generic",8,"green",30,"True","trufts"
"460",15,2830,"truth_conditions","bare","spots","generic",9,"copper",30,"True","glippets"
"461",15,4192,"truth_conditions","danger-distinct","ears","generic",10,"pink",10,"True","elleps"
"462",15,6053,"truth_conditions","danger-distinct","tails","generic",11,"purple",70,"True","taifels"
"463",15,6525,"truth_conditions","danger-distinct","scales","generic",12,"yellow",70,"True","dorbs"
"464",15,2300,"truth_conditions","bare","fur","generic",13,"yellow",70,"True","ollers"
"465",15,4369,"truth_conditions","bare","stripes","generic",14,"silver",30,"True","frams"
"466",15,4836,"truth_conditions","danger-distinct","feathers","generic",15,"gold",10,"True","plovs"
"467",15,2516,"truth_conditions","bare","shells","generic",16,"orange",30,"True","luzaks"
"468",15,6885,"truth_conditions","danger-distinct","shells","generic",17,"green",70,"True","moxes"
"469",15,13329,"truth_conditions","danger-distinct","spots","generic",18,"red",90,"True","sapers"
"470",15,4912,"truth_conditions","nondistinctive","scales","generic",19,"blue",50,"True","reesles"
"471",15,5982,"truth_conditions","danger-distinct","fur","generic",20,"silver",10,"True","morseths"
"472",15,2421,"truth_conditions","bare","teeth","generic",21,"pink",50,"True","krivels"
"473",15,8226,"truth_conditions","nondistinctive","spots","generic",22,"gold",70,"True","stups"
"474",15,10088,"truth_conditions","nondistinctive","teeth","generic",23,"green",90,"True","zoovs"
"475",15,3530,"truth_conditions","bare","scales","generic",24,"red",90,"True","blins"
"476",15,6425,"truth_conditions","danger-distinct","teeth","generic",25,"blue",10,"True","thups"
"477",15,9138,"truth_conditions","nondistinctive","stripes","generic",26,"gold",30,"True","daiths"
"478",15,5569,"truth_conditions","nondistinctive","ears","generic",27,"orange",50,"True","kazzes"
"479",15,3039,"truth_conditions","bare","legs","generic",28,"pink",90,"True","feps"
"480",15,4247,"truth_conditions","danger-distinct","legs","generic",29,"silver",50,"True","ackles"
"481",16,19633,"truth_conditions","nondistinctive","spots","generic",0,"copper",30,"True","glippets"
"482",16,4941,"truth_conditions","bare","stripes","generic",1,"silver",50,"True","frams"
"483",16,10701,"truth_conditions","danger-distinct","tails","generic",2,"green",30,"True","trufts"
"484",16,6789,"truth_conditions","danger-distinct","legs","generic",3,"yellow",90,"True","ludinos"
"485",16,8626,"truth_conditions","bare","shells","generic",4,"green",50,"True","moxes"
"486",16,11554,"truth_conditions","nondistinctive","scales","generic",5,"yellow",50,"True","dorbs"
"487",16,9061,"truth_conditions","bare","feathers","generic",6,"gold",10,"True","plovs"
"488",16,2984,"truth_conditions","bare","tails","generic",7,"purple",50,"True","taifels"
"489",16,5992,"truth_conditions","danger-distinct","spots","generic",8,"red",30,"True","sapers"
"490",16,7617,"truth_conditions","nondistinctive","fur","generic",9,"yellow",70,"True","ollers"
"491",16,4147,"truth_conditions","danger-distinct","scales","generic",10,"blue",30,"True","reesles"
"492",16,4040,"truth_conditions","bare","scales","generic",11,"red",50,"True","blins"
"493",16,5735,"truth_conditions","danger-distinct","shells","generic",12,"orange",50,"True","luzaks"
"494",16,7466,"truth_conditions","danger-distinct","fur","generic",13,"silver",90,"True","morseths"
"495",16,6806,"truth_conditions","danger-distinct","stripes","generic",14,"copper",90,"True","mooks"
"496",16,4594,"truth_conditions","nondistinctive","feathers","generic",15,"red",90,"True","noobs"
"497",16,4656,"truth_conditions","nondistinctive","ears","generic",16,"orange",30,"True","kazzes"
"498",16,2499,"truth_conditions","nondistinctive","teeth","generic",17,"pink",70,"True","krivels"
"499",16,2528,"truth_conditions","nondistinctive","shells","generic",18,"purple",70,"True","javs"
"500",16,4618,"truth_conditions","bare","ears","generic",19,"pink",90,"True","elleps"
"501",16,4446,"truth_conditions","nondistinctive","legs","generic",20,"silver",70,"True","ackles"
"502",16,3163,"truth_conditions","bare","fur","generic",21,"copper",90,"True","kweps"
"503",16,5085,"truth_conditions","nondistinctive","tails","generic",22,"orange",10,"True","zorbs"
"504",16,9849,"truth_conditions","danger-distinct","ears","generic",23,"blue",30,"True","cheebas"
"505",16,4195,"truth_conditions","nondistinctive","stripes","generic",24,"gold",10,"True","daiths"
"506",16,2413,"truth_conditions","bare","legs","generic",25,"pink",10,"True","feps"
"507",16,5680,"truth_conditions","danger-distinct","feathers","generic",26,"purple",70,"True","lorches"
"508",16,3602,"truth_conditions","bare","spots","generic",27,"gold",10,"True","stups"
"509",16,4578,"truth_conditions","danger-distinct","teeth","generic",28,"blue",70,"True","thups"
"510",16,2335,"truth_conditions","bare","teeth","generic",29,"green",10,"True","zoovs"
"511",17,5455,"truth_conditions","bare","shells","generic",0,"green",90,"True","moxes"
"512",17,7669,"truth_conditions","danger-distinct","legs","generic",1,"pink",10,"True","feps"
"513",17,4200,"truth_conditions","nondistinctive","ears","generic",2,"orange",10,"True","kazzes"
"514",17,2384,"truth_conditions","nondistinctive","stripes","generic",3,"gold",70,"True","daiths"
"515",17,2505,"truth_conditions","danger-distinct","ears","generic",4,"pink",10,"True","elleps"
"516",17,2794,"truth_conditions","nondistinctive","feathers","generic",5,"purple",50,"True","lorches"
"517",17,2488,"truth_conditions","bare","fur","generic",6,"silver",70,"True","morseths"
"518",17,2409,"truth_conditions","bare","teeth","generic",7,"blue",50,"True","thups"
"519",17,32015,"truth_conditions","danger-distinct","spots","generic",8,"copper",10,"True","glippets"
"520",17,3058,"truth_conditions","danger-distinct","feathers","generic",9,"red",90,"True","noobs"
"521",17,2514,"truth_conditions","nondistinctive","legs","generic",10,"silver",50,"True","ackles"
"522",17,833,"truth_conditions","danger-distinct","teeth","generic",11,"green",90,"True","zoovs"
"523",17,3121,"truth_conditions","danger-distinct","fur","generic",12,"yellow",70,"True","ollers"
"524",17,1372,"truth_conditions","danger-distinct","tails","generic",13,"green",30,"True","trufts"
"525",17,1155,"truth_conditions","danger-distinct","scales","generic",14,"blue",30,"True","reesles"
"526",17,763,"truth_conditions","nondistinctive","teeth","generic",15,"pink",50,"True","krivels"
"527",17,1668,"truth_conditions","nondistinctive","fur","generic",16,"copper",50,"True","kweps"
"528",17,946,"truth_conditions","nondistinctive","shells","generic",17,"orange",70,"True","luzaks"
"529",17,1509,"truth_conditions","nondistinctive","scales","generic",18,"red",10,"True","blins"
"530",17,1565,"truth_conditions","bare","stripes","generic",19,"silver",30,"True","frams"
"531",17,784,"truth_conditions","bare","ears","generic",20,"blue",30,"True","cheebas"
"532",17,699,"truth_conditions","bare","tails","generic",21,"purple",90,"True","taifels"
"533",17,9689,"truth_conditions","danger-distinct","shells","generic",22,"purple",90,"True","javs"
"534",17,1799,"truth_conditions","bare","spots","generic",23,"red",30,"True","sapers"
"535",17,11178,"truth_conditions","bare","legs","generic",24,"yellow",30,"True","ludinos"
"536",17,2358,"truth_conditions","danger-distinct","stripes","generic",25,"copper",50,"True","mooks"
"537",17,5602,"truth_conditions","nondistinctive","spots","generic",26,"gold",70,"True","stups"
"538",17,923,"truth_conditions","bare","scales","generic",27,"yellow",70,"True","dorbs"
"539",17,1942,"truth_conditions","nondistinctive","tails","generic",28,"orange",90,"True","zorbs"
"540",17,6093,"truth_conditions","bare","feathers","generic",29,"gold",10,"True","plovs"
"541",18,6243,"truth_conditions","bare","spots","generic",0,"red",10,"False","sapers"
"542",18,7916,"truth_conditions","danger-distinct","feathers","generic",1,"gold",50,"True","plovs"
"543",18,3599,"truth_conditions","bare","feathers","generic",2,"purple",90,"True","lorches"
"544",18,17291,"truth_conditions","nondistinctive","scales","generic",3,"red",30,"True","blins"
"545",18,5475,"truth_conditions","nondistinctive","tails","generic",4,"green",30,"True","trufts"
"546",18,3182,"truth_conditions","bare","teeth","generic",5,"blue",50,"True","thups"
"547",18,5462,"truth_conditions","nondistinctive","feathers","generic",6,"red",50,"True","noobs"
"548",18,4640,"truth_conditions","bare","fur","generic",7,"copper",10,"False","kweps"
"549",18,2039,"truth_conditions","bare","scales","generic",8,"yellow",90,"True","dorbs"
"550",18,4799,"truth_conditions","danger-distinct","shells","generic",9,"green",70,"True","moxes"
"551",18,3640,"truth_conditions","danger-distinct","ears","generic",10,"pink",90,"True","elleps"
"552",18,3728,"truth_conditions","bare","stripes","generic",11,"gold",30,"True","daiths"
"553",18,7496,"truth_conditions","nondistinctive","spots","generic",12,"copper",10,"False","glippets"
"554",18,4743,"truth_conditions","nondistinctive","ears","generic",13,"blue",10,"False","cheebas"
"555",18,2855,"truth_conditions","danger-distinct","tails","generic",14,"orange",50,"True","zorbs"
"556",18,4968,"truth_conditions","danger-distinct","scales","generic",15,"blue",50,"True","reesles"
"557",18,3063,"truth_conditions","nondistinctive","fur","generic",16,"silver",90,"True","morseths"
"558",18,3239,"truth_conditions","nondistinctive","stripes","generic",17,"silver",70,"True","frams"
"559",18,2719,"truth_conditions","bare","shells","generic",18,"purple",90,"True","javs"
"560",18,2976,"truth_conditions","danger-distinct","fur","generic",19,"yellow",70,"True","ollers"
"561",18,2991,"truth_conditions","nondistinctive","teeth","generic",20,"green",30,"True","zoovs"
"562",18,1920,"truth_conditions","bare","ears","generic",21,"orange",70,"True","kazzes"
"563",18,2127,"truth_conditions","danger-distinct","legs","generic",22,"silver",70,"True","ackles"
"564",18,2487,"truth_conditions","danger-distinct","teeth","generic",23,"pink",70,"True","krivels"
"565",18,3135,"truth_conditions","nondistinctive","legs","generic",24,"pink",10,"False","feps"
"566",18,3224,"truth_conditions","danger-distinct","stripes","generic",25,"copper",10,"False","mooks"
"567",18,2488,"truth_conditions","bare","legs","generic",26,"yellow",50,"True","ludinos"
"568",18,5913,"truth_conditions","bare","tails","generic",27,"purple",90,"True","taifels"
"569",18,5443,"truth_conditions","danger-distinct","spots","generic",28,"gold",30,"True","stups"
"570",18,5281,"truth_conditions","nondistinctive","shells","generic",29,"orange",30,"True","luzaks"
"571",19,15567,"truth_conditions","danger-distinct","feathers","generic",0,"purple",50,"True","lorches"
"572",19,4652,"truth_conditions","bare","feathers","generic",1,"gold",50,"True","plovs"
"573",19,8812,"truth_conditions","danger-distinct","teeth","generic",2,"pink",10,"False","krivels"
"574",19,6424,"truth_conditions","bare","ears","generic",3,"pink",30,"False","elleps"
"575",19,5067,"truth_conditions","nondistinctive","fur","generic",4,"copper",30,"False","kweps"
"576",19,5400,"truth_conditions","bare","teeth","generic",5,"blue",30,"False","thups"
"577",19,2635,"truth_conditions","bare","shells","generic",6,"purple",10,"False","javs"
"578",19,4592,"truth_conditions","danger-distinct","legs","generic",7,"yellow",30,"False","ludinos"
"579",19,5653,"truth_conditions","nondistinctive","ears","generic",8,"blue",50,"True","cheebas"
"580",19,4852,"truth_conditions","nondistinctive","stripes","generic",9,"gold",90,"True","daiths"
"581",19,3069,"truth_conditions","nondistinctive","feathers","generic",10,"red",70,"True","noobs"
"582",19,3576,"truth_conditions","nondistinctive","scales","generic",11,"blue",90,"True","reesles"
"583",19,3286,"truth_conditions","nondistinctive","legs","generic",12,"silver",70,"True","ackles"
"584",19,4151,"truth_conditions","danger-distinct","shells","generic",13,"green",10,"False","moxes"
"585",19,5519,"truth_conditions","bare","stripes","generic",14,"copper",10,"False","mooks"
"586",19,6580,"truth_conditions","danger-distinct","tails","generic",15,"green",90,"True","trufts"
"587",19,3618,"truth_conditions","danger-distinct","scales","generic",16,"red",70,"True","blins"
"588",19,4890,"truth_conditions","danger-distinct","stripes","generic",17,"silver",70,"True","frams"
"589",19,7403,"truth_conditions","nondistinctive","tails","generic",18,"orange",30,"False","zorbs"
"590",19,6767,"truth_conditions","nondistinctive","teeth","generic",19,"green",50,"True","zoovs"
"591",19,3181,"truth_conditions","danger-distinct","ears","generic",20,"orange",10,"False","kazzes"
"592",19,4399,"truth_conditions","nondistinctive","shells","generic",21,"orange",30,"False","luzaks"
"593",19,4105,"truth_conditions","bare","legs","generic",22,"pink",50,"True","feps"
"594",19,6345,"truth_conditions","danger-distinct","spots","generic",23,"gold",90,"True","stups"
"595",19,3854,"truth_conditions","bare","tails","generic",24,"purple",70,"True","taifels"
"596",19,6122,"truth_conditions","danger-distinct","fur","generic",25,"silver",90,"True","morseths"
"597",19,4891,"truth_conditions","bare","scales","generic",26,"yellow",50,"True","dorbs"
"598",19,2219,"truth_conditions","bare","fur","generic",27,"yellow",10,"False","ollers"
"599",19,2617,"truth_conditions","bare","spots","generic",28,"red",90,"True","sapers"
"600",19,5870,"truth_conditions","nondistinctive","spots","generic",29,"copper",70,"True","glippets"
"601",20,14696,"truth_conditions","nondistinctive","shells","generic",0,"orange",30,"True","luzaks"
"602",20,6561,"truth_conditions","danger-distinct","stripes","generic",1,"copper",10,"True","mooks"
"603",20,4073,"truth_conditions","nondistinctive","teeth","generic",2,"blue",70,"True","thups"
"604",20,3155,"truth_conditions","nondistinctive","stripes","generic",3,"gold",90,"True","daiths"
"605",20,3734,"truth_conditions","danger-distinct","shells","generic",4,"purple",90,"True","javs"
"606",20,2719,"truth_conditions","danger-distinct","spots","generic",5,"copper",70,"True","glippets"
"607",20,2445,"truth_conditions","nondistinctive","scales","generic",6,"blue",70,"True","reesles"
"608",20,2569,"truth_conditions","nondistinctive","ears","generic",7,"blue",50,"True","cheebas"
"609",20,2527,"truth_conditions","nondistinctive","feathers","generic",8,"gold",50,"True","plovs"
"610",20,3119,"truth_conditions","danger-distinct","fur","generic",9,"copper",10,"True","kweps"
"611",20,2193,"truth_conditions","danger-distinct","legs","generic",10,"pink",10,"True","feps"
"612",20,2294,"truth_conditions","bare","shells","generic",11,"green",90,"True","moxes"
"613",20,1690,"truth_conditions","danger-distinct","feathers","generic",12,"red",30,"True","noobs"
"614",20,1718,"truth_conditions","bare","legs","generic",13,"yellow",10,"True","ludinos"
"615",20,2436,"truth_conditions","danger-distinct","ears","generic",14,"orange",70,"True","kazzes"
"616",20,2932,"truth_conditions","bare","spots","generic",15,"gold",50,"True","stups"
"617",20,2922,"truth_conditions","nondistinctive","spots","generic",16,"red",30,"True","sapers"
"618",20,1657,"truth_conditions","nondistinctive","legs","generic",17,"silver",90,"True","ackles"
"619",20,1447,"truth_conditions","bare","teeth","generic",18,"green",70,"True","zoovs"
"620",20,2214,"truth_conditions","danger-distinct","teeth","generic",19,"pink",30,"True","krivels"
"621",20,1880,"truth_conditions","danger-distinct","tails","generic",20,"green",30,"True","trufts"
"622",20,1930,"truth_conditions","bare","tails","generic",21,"purple",50,"True","taifels"
"623",20,1926,"truth_conditions","nondistinctive","fur","generic",22,"yellow",10,"True","ollers"
"624",20,1582,"truth_conditions","bare","scales","generic",23,"red",50,"True","blins"
"625",20,2084,"truth_conditions","nondistinctive","tails","generic",24,"orange",70,"True","zorbs"
"626",20,1667,"truth_conditions","bare","feathers","generic",25,"purple",10,"True","lorches"
"627",20,1812,"truth_conditions","danger-distinct","scales","generic",26,"yellow",90,"True","dorbs"
"628",20,1170,"truth_conditions","bare","fur","generic",27,"silver",30,"True","morseths"
"629",20,1335,"truth_conditions","bare","ears","generic",28,"pink",90,"True","elleps"
"630",20,2184,"truth_conditions","bare","stripes","generic",29,"silver",50,"True","frams"
"631",21,6043,"truth_conditions","bare","legs","generic",0,"silver",90,"True","ackles"
"632",21,2980,"truth_conditions","bare","stripes","generic",1,"copper",90,"True","mooks"
"633",21,9270,"truth_conditions","nondistinctive","shells","generic",2,"orange",10,"True","luzaks"
"634",21,6327,"truth_conditions","danger-distinct","ears","generic",3,"orange",90,"True","kazzes"
"635",21,6712,"truth_conditions","danger-distinct","scales","generic",4,"blue",70,"True","reesles"
"636",21,5271,"truth_conditions","nondistinctive","teeth","generic",5,"green",30,"True","zoovs"
"637",21,3392,"truth_conditions","nondistinctive","ears","generic",6,"pink",50,"True","elleps"
"638",21,2913,"truth_conditions","bare","shells","generic",7,"purple",30,"True","javs"
"639",21,3599,"truth_conditions","bare","spots","generic",8,"copper",30,"True","glippets"
"640",21,8255,"truth_conditions","nondistinctive","feathers","generic",9,"purple",50,"True","lorches"
"641",21,6792,"truth_conditions","nondistinctive","tails","generic",10,"purple",70,"True","taifels"
"642",21,4526,"truth_conditions","bare","fur","generic",11,"yellow",30,"True","ollers"
"643",21,5265,"truth_conditions","nondistinctive","scales","generic",12,"yellow",10,"False","dorbs"
"644",21,3007,"truth_conditions","danger-distinct","feathers","generic",13,"red",30,"True","noobs"
"645",21,5119,"truth_conditions","danger-distinct","stripes","generic",14,"gold",90,"True","daiths"
"646",21,4143,"truth_conditions","bare","feathers","generic",15,"gold",50,"True","plovs"
"647",21,7792,"truth_conditions","danger-distinct","spots","generic",16,"red",10,"False","sapers"
"648",21,2724,"truth_conditions","nondistinctive","fur","generic",17,"copper",50,"True","kweps"
"649",21,5489,"truth_conditions","danger-distinct","tails","generic",18,"orange",30,"True","zorbs"
"650",21,4423,"truth_conditions","danger-distinct","shells","generic",19,"green",10,"False","moxes"
"651",21,5031,"truth_conditions","nondistinctive","stripes","generic",20,"silver",90,"True","frams"
"652",21,2969,"truth_conditions","bare","scales","generic",21,"red",70,"True","blins"
"653",21,3368,"truth_conditions","nondistinctive","spots","generic",22,"gold",70,"True","stups"
"654",21,4592,"truth_conditions","danger-distinct","fur","generic",23,"silver",70,"True","morseths"
"655",21,5303,"truth_conditions","danger-distinct","teeth","generic",24,"blue",10,"False","thups"
"656",21,4583,"truth_conditions","danger-distinct","legs","generic",25,"yellow",90,"True","ludinos"
"657",21,2799,"truth_conditions","bare","ears","generic",26,"blue",50,"True","cheebas"
"658",21,2623,"truth_conditions","bare","teeth","generic",27,"pink",10,"False","krivels"
"659",21,3855,"truth_conditions","nondistinctive","legs","generic",28,"pink",70,"True","feps"
"660",21,2616,"truth_conditions","bare","tails","generic",29,"green",50,"True","trufts"
"661",22,14226,"truth_conditions","danger-distinct","feathers","generic",0,"gold",30,"True","plovs"
"662",22,9307,"truth_conditions","nondistinctive","teeth","generic",1,"pink",10,"False","krivels"
"663",22,6855,"truth_conditions","bare","spots","generic",2,"gold",30,"False","stups"
"664",22,5178,"truth_conditions","bare","tails","generic",3,"purple",50,"False","taifels"
"665",22,11819,"truth_conditions","danger-distinct","teeth","generic",4,"blue",10,"True","thups"
"666",22,7464,"truth_conditions","nondistinctive","spots","generic",5,"copper",10,"False","glippets"
"667",22,4677,"truth_conditions","bare","stripes","generic",6,"copper",90,"True","mooks"
"668",22,4239,"truth_conditions","bare","shells","generic",7,"green",70,"True","moxes"
"669",22,6812,"truth_conditions","danger-distinct","spots","generic",8,"red",70,"True","sapers"
"670",22,7802,"truth_conditions","nondistinctive","stripes","generic",9,"silver",10,"False","frams"
"671",22,6696,"truth_conditions","nondistinctive","feathers","generic",10,"purple",50,"False","lorches"
"672",22,8891,"truth_conditions","nondistinctive","legs","generic",11,"pink",30,"False","feps"
"673",22,10433,"truth_conditions","nondistinctive","ears","generic",12,"orange",50,"False","kazzes"
"674",22,13166,"truth_conditions","nondistinctive","tails","generic",13,"orange",30,"False","zorbs"
"675",22,7133,"truth_conditions","danger-distinct","fur","generic",14,"copper",70,"True","kweps"
"676",22,5443,"truth_conditions","danger-distinct","scales","generic",15,"yellow",90,"True","dorbs"
"677",22,6609,"truth_conditions","nondistinctive","shells","generic",16,"orange",50,"False","luzaks"
"678",22,16241,"truth_conditions","bare","feathers","generic",17,"red",70,"True","noobs"
"679",22,25138,"truth_conditions","danger-distinct","legs","generic",18,"silver",30,"False","ackles"
"680",22,6151,"truth_conditions","danger-distinct","stripes","generic",19,"gold",30,"False","daiths"
"681",22,7200,"truth_conditions","nondistinctive","fur","generic",20,"yellow",90,"True","ollers"
"682",22,4433,"truth_conditions","bare","scales","generic",21,"red",90,"True","blins"
"683",22,4531,"truth_conditions","bare","teeth","generic",22,"green",70,"True","zoovs"
"684",22,41201,"truth_conditions","danger-distinct","ears","generic",23,"pink",10,"False","elleps"
"685",22,2817,"truth_conditions","bare","fur","generic",24,"silver",70,"True","morseths"
"686",22,4848,"truth_conditions","danger-distinct","tails","generic",25,"green",50,"False","trufts"
"687",22,5631,"truth_conditions","nondistinctive","scales","generic",26,"blue",10,"False","reesles"
"688",22,3823,"truth_conditions","bare","legs","generic",27,"yellow",90,"True","ludinos"
"689",22,5417,"truth_conditions","bare","ears","generic",28,"blue",50,"False","cheebas"
"690",22,3247,"truth_conditions","danger-distinct","shells","generic",29,"purple",90,"True","javs"
"691",23,13466,"truth_conditions","danger-distinct","stripes","generic",0,"gold",90,"True","daiths"
"692",23,15616,"truth_conditions","nondistinctive","fur","generic",1,"silver",30,"False","morseths"
"693",23,9842,"truth_conditions","danger-distinct","legs","generic",2,"pink",10,"False","feps"
"694",23,5056,"truth_conditions","bare","feathers","generic",3,"purple",70,"False","lorches"
"695",23,3825,"truth_conditions","bare","teeth","generic",4,"pink",50,"False","krivels"
"696",23,8985,"truth_conditions","nondistinctive","tails","generic",5,"purple",10,"False","taifels"
"697",23,9123,"truth_conditions","danger-distinct","spots","generic",6,"copper",50,"False","glippets"
"698",23,4864,"truth_conditions","bare","fur","generic",7,"copper",70,"False","kweps"
"699",23,7414,"truth_conditions","nondistinctive","spots","generic",8,"gold",50,"False","stups"
"700",23,2966,"truth_conditions","bare","spots","generic",9,"red",30,"False","sapers"
"701",23,6979,"truth_conditions","nondistinctive","shells","generic",10,"green",70,"False","moxes"
"702",23,8096,"truth_conditions","danger-distinct","ears","generic",11,"orange",10,"False","kazzes"
"703",23,5767,"truth_conditions","bare","legs","generic",12,"yellow",90,"False","ludinos"
"704",23,2240,"truth_conditions","bare","ears","generic",13,"pink",70,"False","elleps"
"705",23,3446,"truth_conditions","danger-distinct","fur","generic",14,"yellow",90,"False","ollers"
"706",23,2524,"truth_conditions","danger-distinct","teeth","generic",15,"blue",90,"False","thups"
"707",23,2406,"truth_conditions","nondistinctive","stripes","generic",16,"silver",90,"False","frams"
"708",23,3410,"truth_conditions","danger-distinct","tails","generic",17,"green",70,"False","trufts"
"709",23,2020,"truth_conditions","nondistinctive","legs","generic",18,"silver",50,"False","ackles"
"710",23,1956,"truth_conditions","danger-distinct","feathers","generic",19,"gold",10,"False","plovs"
"711",23,3172,"truth_conditions","nondistinctive","feathers","generic",20,"red",50,"False","noobs"
"712",23,1996,"truth_conditions","bare","shells","generic",21,"orange",50,"False","luzaks"
"713",23,1832,"truth_conditions","danger-distinct","shells","generic",22,"purple",30,"False","javs"
"714",23,1982,"truth_conditions","bare","scales","generic",23,"blue",90,"False","reesles"
"715",23,2114,"truth_conditions","nondistinctive","ears","generic",24,"blue",10,"False","cheebas"
"716",23,1786,"truth_conditions","bare","tails","generic",25,"orange",10,"False","zorbs"
"717",23,1704,"truth_conditions","nondistinctive","teeth","generic",26,"green",70,"False","zoovs"
"718",23,1846,"truth_conditions","nondistinctive","scales","generic",27,"yellow",30,"False","dorbs"
"719",23,3612,"truth_conditions","danger-distinct","scales","generic",28,"red",30,"False","blins"
"720",23,2090,"truth_conditions","bare","stripes","generic",29,"copper",30,"False","mooks"
"721",24,9525,"truth_conditions","bare","tails","generic",0,"green",30,"False","trufts"
"722",24,16337,"truth_conditions","danger-distinct","stripes","generic",1,"gold",50,"False","daiths"
"723",24,16042,"truth_conditions","danger-distinct","fur","generic",2,"yellow",30,"True","ollers"
"724",24,6727,"truth_conditions","bare","shells","generic",3,"orange",10,"False","luzaks"
"725",24,9264,"truth_conditions","bare","teeth","generic",4,"blue",30,"True","thups"
"726",24,10473,"truth_conditions","nondistinctive","spots","generic",5,"copper",10,"False","glippets"
"727",24,9520,"truth_conditions","danger-distinct","tails","generic",6,"orange",90,"True","zorbs"
"728",24,9295,"truth_conditions","danger-distinct","feathers","generic",7,"red",50,"True","noobs"
"729",24,12569,"truth_conditions","nondistinctive","teeth","generic",8,"pink",50,"True","krivels"
"730",24,4282,"truth_conditions","bare","spots","generic",9,"red",50,"True","sapers"
"731",24,9177,"truth_conditions","bare","fur","generic",10,"silver",30,"False","morseths"
"732",24,7775,"truth_conditions","nondistinctive","shells","generic",11,"green",70,"True","moxes"
"733",24,6042,"truth_conditions","danger-distinct","scales","generic",12,"yellow",50,"True","dorbs"
"734",24,3946,"truth_conditions","bare","stripes","generic",13,"silver",90,"True","frams"
"735",24,7869,"truth_conditions","nondistinctive","feathers","generic",14,"purple",30,"True","lorches"
"736",24,4832,"truth_conditions","danger-distinct","spots","generic",15,"gold",70,"True","stups"
"737",24,4028,"truth_conditions","bare","scales","generic",16,"red",90,"True","blins"
"738",24,5965,"truth_conditions","nondistinctive","tails","generic",17,"purple",30,"False","taifels"
"739",24,5039,"truth_conditions","bare","ears","generic",18,"blue",10,"False","cheebas"
"740",24,3986,"truth_conditions","bare","legs","generic",19,"silver",90,"True","ackles"
"741",24,8353,"truth_conditions","nondistinctive","stripes","generic",20,"copper",70,"True","mooks"
"742",24,6625,"truth_conditions","nondistinctive","scales","generic",21,"blue",10,"False","reesles"
"743",24,4211,"truth_conditions","danger-distinct","teeth","generic",22,"green",50,"True","zoovs"
"744",24,6746,"truth_conditions","nondistinctive","legs","generic",23,"yellow",70,"True","ludinos"
"745",24,6298,"truth_conditions","danger-distinct","legs","generic",24,"pink",90,"True","feps"
"746",24,6614,"truth_conditions","nondistinctive","fur","generic",25,"copper",10,"False","kweps"
"747",24,3722,"truth_conditions","bare","feathers","generic",26,"gold",90,"True","plovs"
"748",24,8605,"truth_conditions","danger-distinct","ears","generic",27,"orange",10,"False","kazzes"
"749",24,4722,"truth_conditions","nondistinctive","ears","generic",28,"pink",70,"True","elleps"
"750",24,4546,"truth_conditions","danger-distinct","shells","generic",29,"purple",70,"True","javs"
"751",25,15549,"truth_conditions","nondistinctive","ears","generic",0,"orange",70,"True","kazzes"
"752",25,12237,"truth_conditions","nondistinctive","legs","generic",1,"silver",70,"True","ackles"
"753",25,10856,"truth_conditions","danger-distinct","legs","generic",2,"pink",10,"True","feps"
"754",25,9844,"truth_conditions","nondistinctive","feathers","generic",3,"gold",10,"True","plovs"
"755",25,18180,"truth_conditions","nondistinctive","shells","generic",4,"green",10,"True","moxes"
"756",25,10947,"truth_conditions","bare","legs","generic",5,"yellow",10,"True","ludinos"
"757",25,5512,"truth_conditions","bare","teeth","generic",6,"green",90,"True","zoovs"
"758",25,5490,"truth_conditions","bare","shells","generic",7,"purple",30,"True","javs"
"759",25,7820,"truth_conditions","bare","feathers","generic",8,"purple",50,"True","lorches"
"760",25,3948,"truth_conditions","bare","fur","generic",9,"copper",10,"True","kweps"
"761",25,11217,"truth_conditions","nondistinctive","scales","generic",10,"yellow",50,"True","dorbs"
"762",25,4240,"truth_conditions","bare","ears","generic",11,"pink",50,"True","elleps"
"763",25,17989,"truth_conditions","nondistinctive","spots","generic",12,"red",10,"False","sapers"
"764",25,12983,"truth_conditions","danger-distinct","shells","generic",13,"orange",30,"True","luzaks"
"765",25,8628,"truth_conditions","danger-distinct","feathers","generic",14,"red",50,"True","noobs"
"766",25,29194,"truth_conditions","danger-distinct","stripes","generic",15,"gold",30,"True","daiths"
"767",25,7931,"truth_conditions","nondistinctive","teeth","generic",16,"blue",90,"True","thups"
"768",25,17213,"truth_conditions","nondistinctive","fur","generic",17,"silver",50,"True","morseths"
"769",25,6559,"truth_conditions","danger-distinct","tails","generic",18,"orange",30,"True","zorbs"
"770",25,11633,"truth_conditions","nondistinctive","stripes","generic",19,"silver",70,"True","frams"
"771",25,6705,"truth_conditions","bare","stripes","generic",20,"copper",50,"True","mooks"
"772",25,4725,"truth_conditions","bare","spots","generic",21,"gold",30,"True","stups"
"773",25,4691,"truth_conditions","bare","scales","generic",22,"blue",70,"True","reesles"
"774",25,9574,"truth_conditions","nondistinctive","tails","generic",23,"green",90,"True","trufts"
"775",25,5006,"truth_conditions","danger-distinct","scales","generic",24,"red",70,"True","blins"
"776",25,6379,"truth_conditions","danger-distinct","spots","generic",25,"copper",70,"True","glippets"
"777",25,10486,"truth_conditions","danger-distinct","ears","generic",26,"blue",90,"True","cheebas"
"778",25,10204,"truth_conditions","bare","tails","generic",27,"purple",30,"True","taifels"
"779",25,9281,"truth_conditions","danger-distinct","teeth","generic",28,"pink",90,"True","krivels"
"780",25,13669,"truth_conditions","danger-distinct","fur","generic",29,"yellow",90,"True","ollers"
"781",26,13746,"truth_conditions","danger-distinct","shells","generic",0,"purple",30,"True","javs"
"782",26,7886,"truth_conditions","bare","legs","generic",1,"yellow",10,"True","ludinos"
"783",26,9667,"truth_conditions","danger-distinct","teeth","generic",2,"pink",30,"True","krivels"
"784",26,9601,"truth_conditions","danger-distinct","spots","generic",3,"copper",70,"True","glippets"
"785",26,10513,"truth_conditions","nondistinctive","tails","generic",4,"orange",30,"True","zorbs"
"786",26,6101,"truth_conditions","bare","shells","generic",5,"green",50,"True","moxes"
"787",26,7981,"truth_conditions","nondistinctive","stripes","generic",6,"gold",90,"True","daiths"
"788",26,4784,"truth_conditions","bare","spots","generic",7,"red",90,"True","sapers"
"789",26,11452,"truth_conditions","danger-distinct","feathers","generic",8,"red",50,"True","noobs"
"790",26,4480,"truth_conditions","bare","fur","generic",9,"copper",70,"True","kweps"
"791",26,4733,"truth_conditions","bare","tails","generic",10,"purple",10,"True","taifels"
"792",26,8350,"truth_conditions","nondistinctive","scales","generic",11,"red",90,"True","blins"
"793",26,7401,"truth_conditions","nondistinctive","shells","generic",12,"orange",30,"True","luzaks"
"794",26,5995,"truth_conditions","danger-distinct","ears","generic",13,"orange",10,"True","kazzes"
"795",26,4820,"truth_conditions","bare","teeth","generic",14,"green",30,"True","zoovs"
"796",26,8708,"truth_conditions","nondistinctive","legs","generic",15,"pink",50,"True","feps"
"797",26,10458,"truth_conditions","nondistinctive","ears","generic",16,"blue",70,"True","cheebas"
"798",26,8300,"truth_conditions","danger-distinct","stripes","generic",17,"copper",90,"True","mooks"
"799",26,9297,"truth_conditions","nondistinctive","spots","generic",18,"gold",90,"True","stups"
"800",26,11336,"truth_conditions","nondistinctive","teeth","generic",19,"blue",70,"True","thups"
"801",26,10951,"truth_conditions","danger-distinct","fur","generic",20,"yellow",50,"True","ollers"
"802",26,8499,"truth_conditions","danger-distinct","legs","generic",21,"silver",70,"True","ackles"
"803",26,6280,"truth_conditions","bare","ears","generic",22,"pink",70,"True","elleps"
"804",26,8335,"truth_conditions","nondistinctive","fur","generic",23,"silver",50,"True","morseths"
"805",26,4268,"truth_conditions","bare","feathers","generic",24,"purple",10,"True","lorches"
"806",26,7700,"truth_conditions","danger-distinct","scales","generic",25,"yellow",10,"True","dorbs"
"807",26,4196,"truth_conditions","bare","scales","generic",26,"blue",10,"True","reesles"
"808",26,7601,"truth_conditions","nondistinctive","feathers","generic",27,"gold",50,"True","plovs"
"809",26,3701,"truth_conditions","bare","stripes","generic",28,"silver",30,"True","frams"
"810",26,6818,"truth_conditions","danger-distinct","tails","generic",29,"green",90,"True","trufts"
"811",27,12496,"truth_conditions","danger-distinct","teeth","generic",0,"blue",70,"True","thups"
"812",27,12654,"truth_conditions","nondistinctive","teeth","generic",1,"green",30,"True","zoovs"
"813",27,3906,"truth_conditions","bare","legs","generic",2,"yellow",10,"True","ludinos"
"814",27,7440,"truth_conditions","danger-distinct","spots","generic",3,"red",10,"True","sapers"
"815",27,4339,"truth_conditions","bare","tails","generic",4,"purple",90,"True","taifels"
"816",27,2331,"truth_conditions","bare","scales","generic",5,"yellow",50,"True","dorbs"
"817",27,4477,"truth_conditions","danger-distinct","legs","generic",6,"silver",90,"True","ackles"
"818",27,2840,"truth_conditions","bare","teeth","generic",7,"pink",50,"True","krivels"
"819",27,1988,"truth_conditions","bare","fur","generic",8,"silver",50,"True","morseths"
"820",27,4829,"truth_conditions","danger-distinct","feathers","generic",9,"gold",70,"True","plovs"
"821",27,2359,"truth_conditions","nondistinctive","shells","generic",10,"green",30,"True","moxes"
"822",27,4192,"truth_conditions","nondistinctive","tails","generic",11,"orange",70,"True","zorbs"
"823",27,4938,"truth_conditions","bare","shells","generic",12,"orange",30,"True","luzaks"
"824",27,3762,"truth_conditions","nondistinctive","legs","generic",13,"pink",90,"True","feps"
"825",27,3147,"truth_conditions","nondistinctive","scales","generic",14,"red",30,"True","blins"
"826",27,3618,"truth_conditions","nondistinctive","spots","generic",15,"copper",90,"True","glippets"
"827",27,2547,"truth_conditions","bare","stripes","generic",16,"copper",50,"True","mooks"
"828",27,2762,"truth_conditions","nondistinctive","ears","generic",17,"blue",70,"True","cheebas"
"829",27,2370,"truth_conditions","bare","spots","generic",18,"gold",30,"True","stups"
"830",27,5140,"truth_conditions","danger-distinct","tails","generic",19,"green",30,"True","trufts"
"831",27,2999,"truth_conditions","nondistinctive","fur","generic",20,"copper",70,"True","kweps"
"832",27,3421,"truth_conditions","danger-distinct","fur","generic",21,"yellow",50,"True","ollers"
"833",27,4423,"truth_conditions","nondistinctive","stripes","generic",22,"silver",90,"True","frams"
"834",27,3902,"truth_conditions","danger-distinct","ears","generic",23,"orange",50,"True","kazzes"
"835",27,5114,"truth_conditions","danger-distinct","scales","generic",24,"blue",10,"True","reesles"
"836",27,3040,"truth_conditions","bare","ears","generic",25,"pink",70,"True","elleps"
"837",27,5130,"truth_conditions","danger-distinct","shells","generic",26,"purple",10,"True","javs"
"838",27,3706,"truth_conditions","bare","feathers","generic",27,"red",10,"True","noobs"
"839",27,3648,"truth_conditions","nondistinctive","feathers","generic",28,"purple",90,"True","lorches"
"840",27,3148,"truth_conditions","danger-distinct","stripes","generic",29,"gold",10,"True","daiths"
"841",28,8347,"truth_conditions","danger-distinct","shells","generic",0,"purple",10,"True","javs"
"842",28,8201,"truth_conditions","danger-distinct","tails","generic",1,"green",50,"True","trufts"
"843",28,7046,"truth_conditions","bare","tails","generic",2,"purple",70,"True","taifels"
"844",28,6399,"truth_conditions","danger-distinct","legs","generic",3,"yellow",30,"True","ludinos"
"845",28,4239,"truth_conditions","nondistinctive","scales","generic",4,"red",50,"True","blins"
"846",28,3824,"truth_conditions","danger-distinct","ears","generic",5,"pink",90,"True","elleps"
"847",28,2871,"truth_conditions","bare","ears","generic",6,"blue",70,"True","cheebas"
"848",28,5879,"truth_conditions","bare","fur","generic",7,"silver",10,"True","morseths"
"849",28,2937,"truth_conditions","bare","feathers","generic",8,"red",70,"True","noobs"
"850",28,2502,"truth_conditions","danger-distinct","stripes","generic",9,"gold",50,"True","daiths"
"851",28,3767,"truth_conditions","danger-distinct","teeth","generic",10,"blue",30,"True","thups"
"852",28,3017,"truth_conditions","nondistinctive","tails","generic",11,"orange",70,"True","zorbs"
"853",28,3008,"truth_conditions","nondistinctive","spots","generic",12,"gold",50,"True","stups"
"854",28,3511,"truth_conditions","danger-distinct","feathers","generic",13,"purple",30,"True","lorches"
"855",28,2991,"truth_conditions","danger-distinct","spots","generic",14,"copper",90,"True","glippets"
"856",28,2800,"truth_conditions","bare","stripes","generic",15,"copper",30,"True","mooks"
"857",28,8007,"truth_conditions","nondistinctive","stripes","generic",16,"silver",10,"True","frams"
"858",28,2792,"truth_conditions","bare","legs","generic",17,"pink",70,"True","feps"
"859",28,3519,"truth_conditions","nondistinctive","shells","generic",18,"green",90,"True","moxes"
"860",28,8472,"truth_conditions","nondistinctive","feathers","generic",19,"gold",30,"True","plovs"
"861",28,1968,"truth_conditions","bare","shells","generic",20,"orange",70,"True","luzaks"
"862",28,1496,"truth_conditions","bare","spots","generic",21,"red",50,"True","sapers"
"863",28,6329,"truth_conditions","danger-distinct","fur","generic",22,"yellow",50,"True","ollers"
"864",28,2343,"truth_conditions","nondistinctive","ears","generic",23,"orange",90,"True","kazzes"
"865",28,8528,"truth_conditions","danger-distinct","scales","generic",24,"blue",10,"True","reesles"
"866",28,2073,"truth_conditions","bare","scales","generic",25,"yellow",30,"True","dorbs"
"867",28,2559,"truth_conditions","nondistinctive","teeth","generic",26,"pink",10,"True","krivels"
"868",28,1391,"truth_conditions","bare","teeth","generic",27,"green",10,"True","zoovs"
"869",28,2377,"truth_conditions","nondistinctive","legs","generic",28,"silver",90,"True","ackles"
"870",28,1830,"truth_conditions","nondistinctive","fur","generic",29,"copper",90,"True","kweps"
"871",29,13716,"truth_conditions","nondistinctive","stripes","generic",0,"copper",50,"True","mooks"
"872",29,2395,"truth_conditions","danger-distinct","ears","generic",1,"orange",50,"True","kazzes"
"873",29,2688,"truth_conditions","nondistinctive","fur","generic",2,"silver",10,"False","morseths"
"874",29,9183,"truth_conditions","nondistinctive","legs","generic",3,"yellow",50,"True","ludinos"
"875",29,7649,"truth_conditions","bare","ears","generic",4,"pink",30,"False","elleps"
"876",29,4896,"truth_conditions","danger-distinct","feathers","generic",5,"purple",10,"False","lorches"
"877",29,4053,"truth_conditions","bare","spots","generic",6,"copper",70,"True","glippets"
"878",29,3098,"truth_conditions","danger-distinct","scales","generic",7,"yellow",50,"True","dorbs"
"879",29,4409,"truth_conditions","bare","tails","generic",8,"purple",90,"True","taifels"
"880",29,3032,"truth_conditions","danger-distinct","tails","generic",9,"orange",30,"False","zorbs"
"881",29,1713,"truth_conditions","bare","stripes","generic",10,"gold",90,"True","daiths"
"882",29,2540,"truth_conditions","danger-distinct","spots","generic",11,"red",10,"False","sapers"
"883",29,3266,"truth_conditions","nondistinctive","ears","generic",12,"blue",50,"False","cheebas"
"884",29,2438,"truth_conditions","danger-distinct","stripes","generic",13,"silver",70,"True","frams"
"885",29,2208,"truth_conditions","nondistinctive","shells","generic",14,"green",70,"True","moxes"
"886",29,2271,"truth_conditions","bare","teeth","generic",15,"green",70,"True","zoovs"
"887",29,3664,"truth_conditions","bare","feathers","generic",16,"red",30,"False","noobs"
"888",29,2729,"truth_conditions","danger-distinct","legs","generic",17,"silver",70,"True","ackles"
"889",29,1180,"truth_conditions","bare","fur","generic",18,"copper",90,"True","kweps"
"890",29,1594,"truth_conditions","nondistinctive","feathers","generic",19,"gold",30,"False","plovs"
"891",29,2175,"truth_conditions","nondistinctive","scales","generic",20,"red",90,"True","blins"
"892",29,1663,"truth_conditions","danger-distinct","teeth","generic",21,"pink",30,"False","krivels"
"893",29,1479,"truth_conditions","nondistinctive","spots","generic",22,"gold",70,"True","stups"
"894",29,2554,"truth_conditions","danger-distinct","fur","generic",23,"yellow",50,"True","ollers"
"895",29,1383,"truth_conditions","nondistinctive","teeth","generic",24,"blue",10,"False","thups"
"896",29,1718,"truth_conditions","bare","shells","generic",25,"orange",10,"False","luzaks"
"897",29,3474,"truth_conditions","danger-distinct","shells","generic",26,"purple",10,"False","javs"
"898",29,1998,"truth_conditions","nondistinctive","tails","generic",27,"green",30,"False","trufts"
"899",29,1858,"truth_conditions","bare","legs","generic",28,"pink",90,"True","feps"
"900",29,1728,"truth_conditions","bare","scales","generic",29,"blue",90,"True","reesles"
"901",30,15450,"truth_conditions","nondistinctive","fur","generic",0,"copper",70,"True","kweps"
"902",30,8317,"truth_conditions","bare","feathers","generic",1,"gold",30,"False","plovs"
"903",30,8118,"truth_conditions","nondistinctive","stripes","generic",2,"gold",10,"False","daiths"
"904",30,5622,"truth_conditions","bare","spots","generic",3,"red",90,"True","sapers"
"905",30,12677,"truth_conditions","danger-distinct","ears","generic",4,"blue",90,"True","cheebas"
"906",30,9108,"truth_conditions","danger-distinct","teeth","generic",5,"blue",50,"False","thups"
"907",30,1798,"truth_conditions","nondistinctive","scales","generic",6,"yellow",10,"False","dorbs"
"908",30,8119,"truth_conditions","danger-distinct","feathers","generic",7,"purple",30,"False","lorches"
"909",30,2320,"truth_conditions","nondistinctive","ears","generic",8,"pink",10,"False","elleps"
"910",30,2955,"truth_conditions","danger-distinct","shells","generic",9,"orange",50,"True","luzaks"
"911",30,6798,"truth_conditions","nondistinctive","tails","generic",10,"purple",30,"False","taifels"
"912",30,3536,"truth_conditions","bare","legs","generic",11,"yellow",50,"True","ludinos"
"913",30,2160,"truth_conditions","bare","teeth","generic",12,"green",10,"False","zoovs"
"914",30,2996,"truth_conditions","nondistinctive","feathers","generic",13,"red",70,"True","noobs"
"915",30,2531,"truth_conditions","danger-distinct","fur","generic",14,"silver",50,"True","morseths"
"916",30,2319,"truth_conditions","danger-distinct","legs","generic",15,"pink",90,"True","feps"
"917",30,1656,"truth_conditions","nondistinctive","legs","generic",16,"silver",50,"False","ackles"
"918",30,2326,"truth_conditions","bare","fur","generic",17,"yellow",70,"True","ollers"
"919",30,6854,"truth_conditions","danger-distinct","stripes","generic",18,"silver",30,"False","frams"
"920",30,2374,"truth_conditions","nondistinctive","teeth","generic",19,"pink",30,"False","krivels"
"921",30,1524,"truth_conditions","danger-distinct","spots","generic",20,"gold",10,"False","stups"
"922",30,1631,"truth_conditions","danger-distinct","tails","generic",21,"orange",90,"True","zorbs"
"923",30,1962,"truth_conditions","bare","shells","generic",22,"purple",50,"True","javs"
"924",30,2140,"truth_conditions","danger-distinct","scales","generic",23,"blue",70,"True","reesles"
"925",30,1882,"truth_conditions","nondistinctive","shells","generic",24,"green",10,"False","moxes"
"926",30,1983,"truth_conditions","bare","scales","generic",25,"red",70,"True","blins"
"927",30,2086,"truth_conditions","nondistinctive","spots","generic",26,"copper",70,"True","glippets"
"928",30,1691,"truth_conditions","bare","stripes","generic",27,"copper",90,"True","mooks"
"929",30,1468,"truth_conditions","bare","ears","generic",28,"orange",30,"False","kazzes"
"930",30,1383,"truth_conditions","bare","tails","generic",29,"green",90,"True","trufts"
"931",31,22051,"truth_conditions","nondistinctive","feathers","generic",0,"gold",30,"True","plovs"
"932",31,4677,"truth_conditions","nondistinctive","ears","generic",1,"orange",90,"True","kazzes"
"933",31,4764,"truth_conditions","bare","shells","generic",2,"purple",30,"False","javs"
"934",31,5053,"truth_conditions","bare","legs","generic",3,"pink",50,"True","feps"
"935",31,9436,"truth_conditions","danger-distinct","ears","generic",4,"blue",90,"True","cheebas"
"936",31,10958,"truth_conditions","nondistinctive","fur","generic",5,"copper",30,"False","kweps"
"937",31,4032,"truth_conditions","bare","stripes","generic",6,"silver",10,"False","frams"
"938",31,10142,"truth_conditions","danger-distinct","teeth","generic",7,"blue",10,"True","thups"
"939",31,3801,"truth_conditions","bare","tails","generic",8,"green",90,"True","trufts"
"940",31,7701,"truth_conditions","danger-distinct","fur","generic",9,"yellow",90,"True","ollers"
"941",31,3353,"truth_conditions","bare","spots","generic",10,"gold",70,"True","stups"
"942",31,16040,"truth_conditions","danger-distinct","spots","generic",11,"copper",70,"True","glippets"
"943",31,4985,"truth_conditions","nondistinctive","scales","generic",12,"yellow",50,"True","dorbs"
"944",31,7011,"truth_conditions","nondistinctive","stripes","generic",13,"gold",10,"False","daiths"
"945",31,6341,"truth_conditions","danger-distinct","shells","generic",14,"orange",10,"True","luzaks"
"946",31,3159,"truth_conditions","bare","ears","generic",15,"pink",70,"True","elleps"
"947",31,3320,"truth_conditions","bare","teeth","generic",16,"green",10,"False","zoovs"
"948",31,3089,"truth_conditions","bare","feathers","generic",17,"purple",90,"True","lorches"
"949",31,5468,"truth_conditions","danger-distinct","legs","generic",18,"yellow",30,"True","ludinos"
"950",31,7476,"truth_conditions","nondistinctive","legs","generic",19,"silver",50,"True","ackles"
"951",31,3226,"truth_conditions","bare","fur","generic",20,"silver",50,"True","morseths"
"952",31,7117,"truth_conditions","danger-distinct","feathers","generic",21,"red",70,"True","noobs"
"953",31,6411,"truth_conditions","nondistinctive","spots","generic",22,"red",30,"False","sapers"
"954",31,6427,"truth_conditions","danger-distinct","stripes","generic",23,"copper",70,"True","mooks"
"955",31,4520,"truth_conditions","bare","scales","generic",24,"red",10,"False","blins"
"956",31,5880,"truth_conditions","danger-distinct","tails","generic",25,"purple",90,"True","taifels"
"957",31,5745,"truth_conditions","nondistinctive","tails","generic",26,"orange",30,"False","zorbs"
"958",31,3957,"truth_conditions","danger-distinct","scales","generic",27,"blue",50,"True","reesles"
"959",31,4626,"truth_conditions","nondistinctive","shells","generic",28,"green",70,"True","moxes"
"960",31,8073,"truth_conditions","nondistinctive","teeth","generic",29,"pink",50,"True","krivels"
"961",32,8210,"truth_conditions","danger-distinct","fur","generic",0,"copper",10,"True","kweps"
"962",32,7666,"truth_conditions","nondistinctive","stripes","generic",1,"gold",90,"True","daiths"
"963",32,3774,"truth_conditions","bare","legs","generic",2,"pink",90,"True","feps"
"964",32,6496,"truth_conditions","danger-distinct","ears","generic",3,"pink",70,"True","elleps"
"965",32,4030,"truth_conditions","nondistinctive","scales","generic",4,"yellow",50,"False","dorbs"
"966",32,4494,"truth_conditions","bare","feathers","generic",5,"red",90,"True","noobs"
"967",32,4809,"truth_conditions","bare","spots","generic",6,"gold",50,"True","stups"
"968",32,14939,"truth_conditions","nondistinctive","shells","generic",7,"purple",70,"True","javs"
"969",32,4908,"truth_conditions","danger-distinct","stripes","generic",8,"copper",70,"True","mooks"
"970",32,2336,"truth_conditions","danger-distinct","shells","generic",9,"green",90,"True","moxes"
"971",32,6940,"truth_conditions","danger-distinct","legs","generic",10,"silver",10,"True","ackles"
"972",32,3721,"truth_conditions","bare","scales","generic",11,"blue",50,"True","reesles"
"973",32,4223,"truth_conditions","danger-distinct","teeth","generic",12,"blue",30,"True","thups"
"974",32,3932,"truth_conditions","bare","tails","generic",13,"green",10,"False","trufts"
"975",32,21667,"truth_conditions","nondistinctive","fur","generic",14,"silver",10,"False","morseths"
"976",32,9795,"truth_conditions","nondistinctive","tails","generic",15,"orange",30,"False","zorbs"
"977",32,6046,"truth_conditions","danger-distinct","tails","generic",16,"purple",90,"True","taifels"
"978",32,3649,"truth_conditions","nondistinctive","ears","generic",17,"blue",70,"True","cheebas"
"979",32,3357,"truth_conditions","nondistinctive","feathers","generic",18,"purple",50,"True","lorches"
"980",32,4338,"truth_conditions","danger-distinct","spots","generic",19,"red",30,"True","sapers"
"981",32,2782,"truth_conditions","bare","stripes","generic",20,"silver",70,"True","frams"
"982",32,5973,"truth_conditions","nondistinctive","legs","generic",21,"yellow",50,"True","ludinos"
"983",32,4832,"truth_conditions","danger-distinct","scales","generic",22,"red",10,"True","blins"
"984",32,3044,"truth_conditions","bare","ears","generic",23,"orange",30,"False","kazzes"
"985",32,5244,"truth_conditions","bare","fur","generic",24,"yellow",50,"True","ollers"
"986",32,2032,"truth_conditions","bare","teeth","generic",25,"pink",70,"True","krivels"
"987",32,11229,"truth_conditions","danger-distinct","feathers","generic",26,"gold",10,"True","plovs"
"988",32,7057,"truth_conditions","nondistinctive","teeth","generic",27,"green",30,"False","zoovs"
"989",32,2011,"truth_conditions","bare","shells","generic",28,"orange",90,"True","luzaks"
"990",32,8621,"truth_conditions","nondistinctive","spots","generic",29,"copper",30,"False","glippets"
"991",33,22256,"truth_conditions","danger-distinct","fur","generic",0,"copper",10,"True","kweps"
"992",33,11786,"truth_conditions","bare","tails","generic",1,"purple",50,"True","taifels"
"993",33,5900,"truth_conditions","bare","teeth","generic",2,"blue",90,"True","thups"
"994",33,21568,"truth_conditions","nondistinctive","shells","generic",3,"purple",50,"True","javs"
"995",33,10277,"truth_conditions","nondistinctive","stripes","generic",4,"silver",10,"True","frams"
"996",33,12493,"truth_conditions","danger-distinct","spots","generic",5,"red",90,"True","sapers"
"997",33,16654,"truth_conditions","nondistinctive","tails","generic",6,"green",50,"False","trufts"
"998",33,12489,"truth_conditions","danger-distinct","shells","generic",7,"orange",70,"True","luzaks"
"999",33,8734,"truth_conditions","nondistinctive","feathers","generic",8,"gold",90,"True","plovs"
"1000",33,11844,"truth_conditions","bare","ears","generic",9,"pink",70,"True","elleps"
"1001",33,22670,"truth_conditions","nondistinctive","teeth","generic",10,"green",30,"True","zoovs"
"1002",33,3542,"truth_conditions","bare","shells","generic",11,"green",30,"True","moxes"
"1003",33,6897,"truth_conditions","danger-distinct","ears","generic",12,"blue",10,"True","cheebas"
"1004",33,20929,"truth_conditions","nondistinctive","legs","generic",13,"silver",10,"True","ackles"
"1005",33,16884,"truth_conditions","danger-distinct","legs","generic",14,"pink",30,"True","feps"
"1006",33,5040,"truth_conditions","bare","stripes","generic",15,"copper",30,"True","mooks"
"1007",33,10823,"truth_conditions","danger-distinct","stripes","generic",16,"gold",50,"True","daiths"
"1008",33,4573,"truth_conditions","nondistinctive","spots","generic",17,"gold",90,"True","stups"
"1009",33,3568,"truth_conditions","bare","spots","generic",18,"copper",10,"True","glippets"
"1010",33,4225,"truth_conditions","danger-distinct","tails","generic",19,"orange",30,"True","zorbs"
"1011",33,3046,"truth_conditions","bare","fur","generic",20,"silver",90,"True","morseths"
"1012",33,5531,"truth_conditions","nondistinctive","scales","generic",21,"yellow",70,"True","dorbs"
"1013",33,3848,"truth_conditions","bare","feathers","generic",22,"red",30,"True","noobs"
"1014",33,3761,"truth_conditions","danger-distinct","scales","generic",23,"red",90,"True","blins"
"1015",33,2149,"truth_conditions","bare","scales","generic",24,"blue",50,"True","reesles"
"1016",33,9042,"truth_conditions","nondistinctive","fur","generic",25,"yellow",10,"False","ollers"
"1017",33,8980,"truth_conditions","danger-distinct","teeth","generic",26,"pink",50,"True","krivels"
"1018",33,4137,"truth_conditions","nondistinctive","ears","generic",27,"orange",70,"True","kazzes"
"1019",33,5763,"truth_conditions","danger-distinct","feathers","generic",28,"purple",70,"True","lorches"
"1020",33,2193,"truth_conditions","bare","legs","generic",29,"yellow",70,"True","ludinos"
"1021",34,7384,"truth_conditions","bare","teeth","generic",0,"pink",30,"False","krivels"
"1022",34,2900,"truth_conditions","bare","tails","generic",1,"green",70,"True","trufts"
"1023",34,8721,"truth_conditions","nondistinctive","shells","generic",2,"green",90,"True","moxes"
"1024",34,3485,"truth_conditions","bare","scales","generic",3,"blue",90,"True","reesles"
"1025",34,9234,"truth_conditions","danger-distinct","stripes","generic",4,"gold",10,"True","daiths"
"1026",34,8510,"truth_conditions","nondistinctive","tails","generic",5,"orange",90,"True","zorbs"
"1027",34,5472,"truth_conditions","nondistinctive","scales","generic",6,"yellow",90,"True","dorbs"
"1028",34,3700,"truth_conditions","bare","ears","generic",7,"pink",50,"True","elleps"
"1029",34,3518,"truth_conditions","bare","feathers","generic",8,"gold",70,"True","plovs"
"1030",34,9486,"truth_conditions","danger-distinct","legs","generic",9,"yellow",70,"True","ludinos"
"1031",34,7095,"truth_conditions","danger-distinct","tails","generic",10,"purple",70,"True","taifels"
"1032",34,5487,"truth_conditions","danger-distinct","feathers","generic",11,"red",10,"False","noobs"
"1033",34,5200,"truth_conditions","danger-distinct","teeth","generic",12,"green",30,"True","zoovs"
"1034",34,4002,"truth_conditions","nondistinctive","teeth","generic",13,"blue",30,"True","thups"
"1035",34,9898,"truth_conditions","bare","stripes","generic",14,"silver",30,"False","frams"
"1036",34,3648,"truth_conditions","nondistinctive","ears","generic",15,"orange",90,"True","kazzes"
"1037",34,4112,"truth_conditions","danger-distinct","scales","generic",16,"red",70,"True","blins"
"1038",34,3388,"truth_conditions","danger-distinct","shells","generic",17,"purple",50,"True","javs"
"1039",34,4617,"truth_conditions","nondistinctive","spots","generic",18,"copper",50,"True","glippets"
"1040",34,5519,"truth_conditions","nondistinctive","feathers","generic",19,"purple",50,"True","lorches"
"1041",34,4848,"truth_conditions","nondistinctive","stripes","generic",20,"copper",10,"False","mooks"
"1042",34,4401,"truth_conditions","nondistinctive","fur","generic",21,"copper",70,"True","kweps"
"1043",34,4497,"truth_conditions","danger-distinct","spots","generic",22,"red",90,"True","sapers"
"1044",34,7122,"truth_conditions","danger-distinct","ears","generic",23,"blue",30,"True","cheebas"
"1045",34,3220,"truth_conditions","bare","shells","generic",24,"orange",10,"False","luzaks"
"1046",34,3783,"truth_conditions","nondistinctive","legs","generic",25,"pink",50,"True","feps"
"1047",34,6484,"truth_conditions","danger-distinct","fur","generic",26,"yellow",30,"True","ollers"
"1048",34,2883,"truth_conditions","bare","spots","generic",27,"gold",10,"False","stups"
"1049",34,3898,"truth_conditions","bare","fur","generic",28,"silver",10,"False","morseths"
"1050",34,3182,"truth_conditions","bare","legs","generic",29,"silver",50,"True","ackles"
"1051",35,16456,"truth_conditions","danger-distinct","fur","generic",0,"yellow",70,"True","ollers"
"1052",35,22526,"truth_conditions","nondistinctive","legs","generic",1,"silver",70,"True","ackles"
"1053",35,8585,"truth_conditions","danger-distinct","shells","generic",2,"green",50,"False","moxes"
