"","workerid","rt","trial_type","stim_type","stim_part","stim_determiner","trialNum","stim_color","stim_prevalence","response","stim_category"
"1",0,10637,"truth_conditions","nondistinctive","stripes","generic",0,"silver",45,"True","frams"
"2",0,4598,"truth_conditions","bare","shells","generic",1,"green",45,"True","moxes"
"3",0,5141,"truth_conditions","nondistinctive","scales","generic",2,"yellow",5,"False","dorbs"
"4",0,3567,"truth_conditions","nondistinctive","fur","generic",3,"copper",5,"False","kweps"
"5",0,4157,"truth_conditions","bare","stripes","generic",4,"gold",5,"False","daiths"
"6",0,6142,"truth_conditions","dangerdistinct","legs","generic",5,"silver",25,"True","ackles"
"7",0,4522,"truth_conditions","bare","tails","generic",6,"orange",25,"True","zorbs"
"8",0,4779,"truth_conditions","nondistinctive","ears","generic",7,"orange",15,"True","kazzes"
"9",0,2707,"truth_conditions","bare","ears","generic",8,"blue",35,"True","cheebas"
"10",0,2074,"truth_conditions","bare","spots","generic",9,"copper",25,"True","glippets"
"11",0,4254,"truth_conditions","bare","feathers","generic",10,"purple",45,"True","lorches"
"12",0,4045,"truth_conditions","nondistinctive","tails","generic",11,"green",45,"True","trufts"
"13",0,4846,"truth_conditions","dangerdistinct","scales","generic",12,"blue",25,"True","reesles"
"14",0,4261,"truth_conditions","bare","fur","generic",13,"silver",5,"False","morseths"
"15",0,4652,"truth_conditions","nondistinctive","teeth","generic",14,"blue",15,"True","thups"
"16",0,4074,"truth_conditions","dangerdistinct","ears","generic",15,"pink",45,"True","elleps"
"17",0,2896,"truth_conditions","nondistinctive","feathers","generic",16,"red",25,"True","noobs"
"18",0,3833,"truth_conditions","dangerdistinct","fur","generic",17,"yellow",5,"True","ollers"
"19",0,4400,"truth_conditions","bare","teeth","generic",18,"pink",35,"True","krivels"
"20",0,2152,"truth_conditions","nondistinctive","spots","generic",19,"gold",25,"True","stups"
"21",0,1807,"truth_conditions","nondistinctive","legs","generic",20,"pink",35,"True","feps"
"22",0,2785,"truth_conditions","bare","scales","generic",21,"red",15,"True","blins"
"23",0,2019,"truth_conditions","dangerdistinct","teeth","generic",22,"green",15,"True","zoovs"
"24",0,1576,"truth_conditions","bare","legs","generic",23,"yellow",15,"True","ludinos"
"25",0,5445,"truth_conditions","dangerdistinct","spots","generic",24,"red",35,"True","sapers"
"26",0,5407,"truth_conditions","dangerdistinct","shells","generic",25,"orange",15,"True","luzaks"
"27",0,2074,"truth_conditions","nondistinctive","shells","generic",26,"purple",35,"True","javs"
"28",0,6903,"truth_conditions","dangerdistinct","tails","generic",27,"purple",5,"True","taifels"
"29",0,1416,"truth_conditions","dangerdistinct","feathers","generic",28,"gold",45,"True","plovs"
"30",0,2597,"truth_conditions","dangerdistinct","stripes","generic",29,"copper",35,"True","mooks"
"31",1,9103,"truth_conditions","bare","fur","generic",0,"silver",5,"True","morseths"
"32",1,3463,"truth_conditions","bare","ears","generic",1,"blue",5,"True","cheebas"
"33",1,11794,"truth_conditions","nondistinctive","teeth","generic",2,"blue",25,"True","thups"
"34",1,7027,"truth_conditions","dangerdistinct","tails","generic",3,"purple",5,"True","taifels"
"35",1,4402,"truth_conditions","dangerdistinct","ears","generic",4,"pink",25,"True","elleps"
"36",1,4474,"truth_conditions","nondistinctive","tails","generic",5,"green",15,"True","trufts"
"37",1,2772,"truth_conditions","nondistinctive","spots","generic",6,"gold",45,"True","stups"
"38",1,3505,"truth_conditions","nondistinctive","shells","generic",7,"purple",15,"True","javs"
"39",1,2932,"truth_conditions","bare","tails","generic",8,"orange",35,"True","zorbs"
"40",1,7481,"truth_conditions","nondistinctive","feathers","generic",9,"red",35,"True","noobs"
"41",1,2649,"truth_conditions","dangerdistinct","fur","generic",10,"yellow",35,"True","ollers"
"42",1,3788,"truth_conditions","bare","spots","generic",11,"copper",25,"True","glippets"
"43",1,2393,"truth_conditions","dangerdistinct","feathers","generic",12,"gold",5,"True","plovs"
"44",1,2359,"truth_conditions","dangerdistinct","shells","generic",13,"orange",15,"True","luzaks"
"45",1,4031,"truth_conditions","bare","shells","generic",14,"green",45,"True","moxes"
"46",1,2930,"truth_conditions","dangerdistinct","teeth","generic",15,"green",15,"True","zoovs"
"47",1,2564,"truth_conditions","nondistinctive","fur","generic",16,"copper",25,"True","kweps"
"48",1,2269,"truth_conditions","nondistinctive","legs","generic",17,"pink",35,"True","feps"
"49",1,2550,"truth_conditions","dangerdistinct","scales","generic",18,"blue",45,"True","reesles"
"50",1,3362,"truth_conditions","bare","stripes","generic",19,"gold",35,"True","daiths"
"51",1,2968,"truth_conditions","dangerdistinct","stripes","generic",20,"copper",45,"True","mooks"
"52",1,2637,"truth_conditions","bare","scales","generic",21,"red",45,"True","blins"
"53",1,4212,"truth_conditions","dangerdistinct","spots","generic",22,"red",25,"True","sapers"
"54",1,3660,"truth_conditions","bare","legs","generic",23,"yellow",25,"True","ludinos"
"55",1,3714,"truth_conditions","bare","feathers","generic",24,"purple",15,"True","lorches"
"56",1,4025,"truth_conditions","dangerdistinct","legs","generic",25,"silver",35,"True","ackles"
"57",1,1850,"truth_conditions","nondistinctive","ears","generic",26,"orange",5,"True","kazzes"
"58",1,1754,"truth_conditions","nondistinctive","scales","generic",27,"yellow",45,"True","dorbs"
"59",1,2354,"truth_conditions","nondistinctive","stripes","generic",28,"silver",5,"True","frams"
"60",1,2575,"truth_conditions","bare","teeth","generic",29,"pink",15,"True","krivels"
"61",2,8987,"truth_conditions","bare","stripes","generic",0,"gold",25,"True","daiths"
"62",2,43792,"truth_conditions","bare","ears","generic",1,"blue",15,"False","cheebas"
"63",2,13019,"truth_conditions","nondistinctive","shells","generic",2,"purple",35,"False","javs"
"64",2,8797,"truth_conditions","dangerdistinct","shells","generic",3,"orange",25,"False","luzaks"
"65",2,7955,"truth_conditions","dangerdistinct","tails","generic",4,"purple",15,"False","taifels"
"66",2,4028,"truth_conditions","dangerdistinct","teeth","generic",5,"green",5,"False","zoovs"
"67",2,4647,"truth_conditions","dangerdistinct","spots","generic",6,"red",15,"False","sapers"
"68",2,3811,"truth_conditions","nondistinctive","feathers","generic",7,"red",5,"False","noobs"
"69",2,11439,"truth_conditions","bare","shells","generic",8,"green",25,"False","moxes"
"70",2,4305,"truth_conditions","dangerdistinct","stripes","generic",9,"copper",35,"False","mooks"
"71",2,8776,"truth_conditions","nondistinctive","legs","generic",10,"pink",15,"False","feps"
"72",2,3187,"truth_conditions","nondistinctive","ears","generic",11,"orange",5,"False","kazzes"
"73",2,2355,"truth_conditions","nondistinctive","scales","generic",12,"yellow",25,"False","dorbs"
"74",2,6129,"truth_conditions","bare","scales","generic",13,"red",35,"False","blins"
"75",2,6546,"truth_conditions","dangerdistinct","scales","generic",14,"blue",45,"True","reesles"
"76",2,2048,"truth_conditions","bare","spots","generic",15,"copper",5,"False","glippets"
"77",2,5450,"truth_conditions","dangerdistinct","legs","generic",16,"silver",25,"False","ackles"
"78",2,2883,"truth_conditions","dangerdistinct","fur","generic",17,"yellow",45,"True","ollers"
"79",2,2267,"truth_conditions","dangerdistinct","feathers","generic",18,"gold",5,"False","plovs"
"80",2,2263,"truth_conditions","bare","fur","generic",19,"silver",45,"True","morseths"
"81",2,1938,"truth_conditions","bare","legs","generic",20,"yellow",5,"False","ludinos"
"82",2,4427,"truth_conditions","bare","tails","generic",21,"orange",35,"False","zorbs"
"83",2,2287,"truth_conditions","nondistinctive","teeth","generic",22,"blue",35,"False","thups"
"84",2,1698,"truth_conditions","nondistinctive","fur","generic",23,"copper",25,"False","kweps"
"85",2,1371,"truth_conditions","bare","feathers","generic",24,"purple",15,"False","lorches"
"86",2,2797,"truth_conditions","dangerdistinct","ears","generic",25,"pink",35,"False","elleps"
"87",2,1770,"truth_conditions","nondistinctive","tails","generic",26,"green",45,"True","trufts"
"88",2,2245,"truth_conditions","bare","teeth","generic",27,"pink",45,"True","krivels"
"89",2,2622,"truth_conditions","nondistinctive","stripes","generic",28,"silver",45,"True","frams"
"90",2,2511,"truth_conditions","nondistinctive","spots","generic",29,"gold",15,"False","stups"
"91",3,2729,"truth_conditions","bare","fur","generic",0,"silver",45,"True","morseths"
"92",3,1473,"truth_conditions","bare","feathers","generic",1,"purple",25,"True","lorches"
"93",3,1722,"truth_conditions","nondistinctive","legs","generic",2,"pink",5,"True","feps"
"94",3,1375,"truth_conditions","dangerdistinct","legs","generic",3,"silver",25,"True","ackles"
"95",3,1436,"truth_conditions","nondistinctive","scales","generic",4,"yellow",5,"True","dorbs"
"96",3,3902,"truth_conditions","dangerdistinct","feathers","generic",5,"gold",25,"True","plovs"
"97",3,2376,"truth_conditions","bare","shells","generic",6,"green",5,"True","moxes"
"98",3,2597,"truth_conditions","bare","teeth","generic",7,"pink",5,"True","krivels"
"99",3,4492,"truth_conditions","nondistinctive","spots","generic",8,"gold",45,"True","stups"
"100",3,4167,"truth_conditions","dangerdistinct","teeth","generic",9,"green",35,"True","zoovs"
"101",3,5264,"truth_conditions","dangerdistinct","fur","generic",10,"yellow",15,"True","ollers"
"102",3,5164,"truth_conditions","dangerdistinct","tails","generic",11,"purple",35,"True","taifels"
"103",3,7505,"truth_conditions","nondistinctive","fur","generic",12,"copper",45,"True","kweps"
"104",3,2710,"truth_conditions","bare","scales","generic",13,"red",25,"True","blins"
"105",3,2330,"truth_conditions","bare","spots","generic",14,"copper",35,"True","glippets"
"106",3,2167,"truth_conditions","bare","ears","generic",15,"blue",35,"True","cheebas"
"107",3,3664,"truth_conditions","dangerdistinct","shells","generic",16,"orange",45,"True","luzaks"
"108",3,4544,"truth_conditions","dangerdistinct","spots","generic",17,"red",5,"True","sapers"
"109",3,3909,"truth_conditions","nondistinctive","feathers","generic",18,"red",25,"True","noobs"
"110",3,2512,"truth_conditions","bare","legs","generic",19,"yellow",45,"True","ludinos"
"111",3,4834,"truth_conditions","nondistinctive","ears","generic",20,"orange",25,"True","kazzes"
"112",3,2429,"truth_conditions","bare","stripes","generic",21,"gold",15,"True","daiths"
"113",3,3554,"truth_conditions","nondistinctive","teeth","generic",22,"blue",35,"True","thups"
"114",3,3126,"truth_conditions","dangerdistinct","scales","generic",23,"blue",5,"True","reesles"
"115",3,2826,"truth_conditions","nondistinctive","shells","generic",24,"purple",35,"True","javs"
"116",3,3254,"truth_conditions","dangerdistinct","ears","generic",25,"pink",45,"True","elleps"
"117",3,3873,"truth_conditions","dangerdistinct","stripes","generic",26,"copper",15,"True","mooks"
"118",3,5016,"truth_conditions","nondistinctive","stripes","generic",27,"silver",15,"True","frams"
"119",3,3836,"truth_conditions","bare","tails","generic",28,"orange",15,"True","zorbs"
"120",3,6909,"truth_conditions","nondistinctive","tails","generic",29,"green",15,"True","trufts"
"121",4,4692,"truth_conditions","dangerdistinct","spots","generic",0,"red",5,"True","sapers"
"122",4,5786,"truth_conditions","bare","spots","generic",1,"copper",15,"True","glippets"
"123",4,1101,"truth_conditions","bare","ears","generic",2,"blue",15,"True","cheebas"
"124",4,774,"truth_conditions","bare","tails","generic",3,"orange",25,"True","zorbs"
"125",4,849,"truth_conditions","bare","fur","generic",4,"silver",5,"True","morseths"
"126",4,1661,"truth_conditions","nondistinctive","feathers","generic",5,"red",25,"False","noobs"
"127",4,1036,"truth_conditions","dangerdistinct","shells","generic",6,"orange",15,"True","luzaks"
"128",4,3788,"truth_conditions","bare","teeth","generic",7,"pink",25,"True","krivels"
"129",4,1231,"truth_conditions","dangerdistinct","legs","generic",8,"silver",35,"True","ackles"
"130",4,2642,"truth_conditions","dangerdistinct","feathers","generic",9,"gold",35,"False","plovs"
"131",4,1256,"truth_conditions","bare","scales","generic",10,"red",45,"True","blins"
"132",4,2582,"truth_conditions","nondistinctive","stripes","generic",11,"silver",15,"True","frams"
"133",4,2560,"truth_conditions","nondistinctive","tails","generic",12,"green",25,"True","trufts"
"134",4,2144,"truth_conditions","nondistinctive","spots","generic",13,"gold",35,"True","stups"
"135",4,3097,"truth_conditions","nondistinctive","shells","generic",14,"purple",15,"True","javs"
"136",4,1234,"truth_conditions","bare","stripes","generic",15,"gold",35,"True","daiths"
"137",4,1168,"truth_conditions","dangerdistinct","fur","generic",16,"yellow",25,"True","ollers"
"138",4,2324,"truth_conditions","dangerdistinct","ears","generic",17,"pink",45,"True","elleps"
"139",4,1138,"truth_conditions","bare","legs","generic",18,"yellow",45,"True","ludinos"
"140",4,1078,"truth_conditions","nondistinctive","teeth","generic",19,"blue",45,"True","thups"
"141",4,2788,"truth_conditions","bare","feathers","generic",20,"purple",5,"True","lorches"
"142",4,2378,"truth_conditions","dangerdistinct","tails","generic",21,"purple",45,"True","taifels"
"143",4,1694,"truth_conditions","bare","shells","generic",22,"green",35,"True","moxes"
"144",4,1132,"truth_conditions","dangerdistinct","teeth","generic",23,"green",25,"True","zoovs"
"145",4,932,"truth_conditions","nondistinctive","legs","generic",24,"pink",5,"True","feps"
"146",4,1844,"truth_conditions","nondistinctive","fur","generic",25,"copper",35,"True","kweps"
"147",4,3462,"truth_conditions","dangerdistinct","stripes","generic",26,"copper",15,"True","mooks"
"148",4,3089,"truth_conditions","nondistinctive","scales","generic",27,"yellow",5,"False","dorbs"
"149",4,2708,"truth_conditions","nondistinctive","ears","generic",28,"orange",45,"True","kazzes"
"150",4,3709,"truth_conditions","dangerdistinct","scales","generic",29,"blue",5,"True","reesles"
"151",5,8757,"truth_conditions","bare","fur","generic",0,"silver",5,"True","morseths"
"152",5,21091,"truth_conditions","nondistinctive","fur","generic",1,"copper",15,"True","kweps"
"153",5,14784,"truth_conditions","dangerdistinct","tails","generic",2,"purple",25,"True","taifels"
"154",5,3491,"truth_conditions","dangerdistinct","fur","generic",3,"yellow",45,"True","ollers"
"155",5,4253,"truth_conditions","dangerdistinct","feathers","generic",4,"gold",45,"True","plovs"
"156",5,2492,"truth_conditions","dangerdistinct","teeth","generic",5,"green",15,"True","zoovs"
"157",5,3265,"truth_conditions","dangerdistinct","stripes","generic",6,"copper",35,"True","mooks"
"158",5,16215,"truth_conditions","nondistinctive","spots","generic",7,"gold",15,"True","stups"
"159",5,2370,"truth_conditions","nondistinctive","ears","generic",8,"orange",35,"True","kazzes"
"160",5,2197,"truth_conditions","bare","shells","generic",9,"green",15,"True","moxes"
"161",5,2899,"truth_conditions","nondistinctive","teeth","generic",10,"blue",25,"True","thups"
"162",5,3798,"truth_conditions","bare","scales","generic",11,"red",45,"True","blins"
"163",5,1766,"truth_conditions","nondistinctive","shells","generic",12,"purple",25,"True","javs"
"164",5,1479,"truth_conditions","bare","legs","generic",13,"yellow",25,"True","ludinos"
"165",5,1577,"truth_conditions","dangerdistinct","ears","generic",14,"pink",35,"True","elleps"
"166",5,3125,"truth_conditions","bare","feathers","generic",15,"purple",35,"True","lorches"
"167",5,11343,"truth_conditions","nondistinctive","feathers","generic",16,"red",5,"True","noobs"
"168",5,3092,"truth_conditions","bare","stripes","generic",17,"gold",25,"True","daiths"
"169",5,1297,"truth_conditions","bare","teeth","generic",18,"pink",45,"True","krivels"
"170",5,1756,"truth_conditions","nondistinctive","tails","generic",19,"green",35,"True","trufts"
"171",5,1058,"truth_conditions","dangerdistinct","scales","generic",20,"blue",25,"True","reesles"
"172",5,959,"truth_conditions","nondistinctive","scales","generic",21,"yellow",45,"True","dorbs"
"173",5,2840,"truth_conditions","bare","spots","generic",22,"copper",15,"True","glippets"
"174",5,1314,"truth_conditions","bare","ears","generic",23,"blue",35,"True","cheebas"
"175",5,1264,"truth_conditions","bare","tails","generic",24,"orange",5,"True","zorbs"
"176",5,3467,"truth_conditions","dangerdistinct","spots","generic",25,"red",15,"True","sapers"
"177",5,1552,"truth_conditions","dangerdistinct","legs","generic",26,"silver",5,"True","ackles"
"178",5,1778,"truth_conditions","nondistinctive","stripes","generic",27,"silver",5,"True","frams"
"179",5,1712,"truth_conditions","nondistinctive","legs","generic",28,"pink",45,"True","feps"
"180",5,2790,"truth_conditions","dangerdistinct","shells","generic",29,"orange",5,"True","luzaks"
"181",6,14976,"truth_conditions","nondistinctive","feathers","generic",0,"red",35,"True","noobs"
"182",6,7591,"truth_conditions","nondistinctive","shells","generic",1,"purple",25,"True","javs"
"183",6,3488,"truth_conditions","dangerdistinct","spots","generic",2,"red",25,"True","sapers"
"184",6,4450,"truth_conditions","nondistinctive","fur","generic",3,"copper",15,"True","kweps"
"185",6,3193,"truth_conditions","nondistinctive","stripes","generic",4,"silver",15,"True","frams"
"186",6,1729,"truth_conditions","nondistinctive","spots","generic",5,"gold",5,"True","stups"
"187",6,3946,"truth_conditions","dangerdistinct","scales","generic",6,"blue",45,"True","reesles"
"188",6,2808,"truth_conditions","bare","feathers","generic",7,"purple",15,"True","lorches"
"189",6,3081,"truth_conditions","bare","tails","generic",8,"orange",5,"True","zorbs"
"190",6,3461,"truth_conditions","bare","shells","generic",9,"green",35,"True","moxes"
"191",6,2099,"truth_conditions","bare","teeth","generic",10,"pink",45,"True","krivels"
"192",6,2602,"truth_conditions","dangerdistinct","shells","generic",11,"orange",25,"True","luzaks"
"193",6,2941,"truth_conditions","dangerdistinct","tails","generic",12,"purple",35,"True","taifels"
"194",6,1912,"truth_conditions","bare","stripes","generic",13,"gold",35,"True","daiths"
"195",6,1577,"truth_conditions","bare","ears","generic",14,"blue",15,"True","cheebas"
"196",6,2366,"truth_conditions","nondistinctive","ears","generic",15,"orange",45,"True","kazzes"
"197",6,4884,"truth_conditions","dangerdistinct","feathers","generic",16,"gold",45,"True","plovs"
"198",6,4313,"truth_conditions","nondistinctive","legs","generic",17,"pink",45,"True","feps"
"199",6,1445,"truth_conditions","nondistinctive","tails","generic",18,"green",25,"True","trufts"
"200",6,1727,"truth_conditions","nondistinctive","scales","generic",19,"yellow",35,"True","dorbs"
"201",6,3728,"truth_conditions","dangerdistinct","fur","generic",20,"yellow",35,"True","ollers"
"202",6,2289,"truth_conditions","bare","spots","generic",21,"copper",25,"True","glippets"
"203",6,2050,"truth_conditions","bare","legs","generic",22,"yellow",45,"True","ludinos"
"204",6,3937,"truth_conditions","dangerdistinct","stripes","generic",23,"copper",5,"True","mooks"
"205",6,1703,"truth_conditions","bare","fur","generic",24,"silver",5,"True","morseths"
"206",6,2294,"truth_conditions","dangerdistinct","teeth","generic",25,"green",15,"True","zoovs"
"207",6,2388,"truth_conditions","dangerdistinct","ears","generic",26,"pink",5,"True","elleps"
"208",6,2076,"truth_conditions","dangerdistinct","legs","generic",27,"silver",15,"True","ackles"
"209",6,1941,"truth_conditions","bare","scales","generic",28,"red",25,"True","blins"
"210",6,6789,"truth_conditions","nondistinctive","teeth","generic",29,"blue",5,"True","thups"
"211",7,16088,"truth_conditions","nondistinctive","teeth","generic",0,"blue",35,"False","thups"
"212",7,7745,"truth_conditions","bare","fur","generic",1,"silver",25,"False","morseths"
"213",7,10368,"truth_conditions","nondistinctive","shells","generic",2,"purple",5,"False","javs"
"214",7,3816,"truth_conditions","bare","ears","generic",3,"blue",45,"False","cheebas"
"215",7,3260,"truth_conditions","nondistinctive","fur","generic",4,"copper",15,"False","kweps"
"216",7,2226,"truth_conditions","bare","shells","generic",5,"green",15,"False","moxes"
"217",7,8345,"truth_conditions","dangerdistinct","shells","generic",6,"orange",15,"True","luzaks"
"218",7,2826,"truth_conditions","dangerdistinct","stripes","generic",7,"copper",35,"True","mooks"
"219",7,3095,"truth_conditions","bare","teeth","generic",8,"pink",35,"False","krivels"
"220",7,1843,"truth_conditions","bare","tails","generic",9,"orange",45,"False","zorbs"
"221",7,3498,"truth_conditions","dangerdistinct","feathers","generic",10,"gold",45,"True","plovs"
"222",7,3100,"truth_conditions","bare","stripes","generic",11,"gold",35,"False","daiths"
"223",7,4192,"truth_conditions","nondistinctive","tails","generic",12,"green",25,"False","trufts"
"224",7,4293,"truth_conditions","dangerdistinct","spots","generic",13,"red",25,"True","sapers"
"225",7,2723,"truth_conditions","dangerdistinct","fur","generic",14,"yellow",5,"True","ollers"
"226",7,3570,"truth_conditions","dangerdistinct","tails","generic",15,"purple",25,"True","taifels"
"227",7,3385,"truth_conditions","dangerdistinct","teeth","generic",16,"green",15,"True","zoovs"
"228",7,4209,"truth_conditions","nondistinctive","stripes","generic",17,"silver",35,"False","frams"
"229",7,3058,"truth_conditions","bare","feathers","generic",18,"purple",25,"False","lorches"
"230",7,3128,"truth_conditions","nondistinctive","spots","generic",19,"gold",15,"False","stups"
"231",7,4542,"truth_conditions","dangerdistinct","ears","generic",20,"pink",45,"True","elleps"
"232",7,5053,"truth_conditions","dangerdistinct","scales","generic",21,"blue",5,"True","reesles"
"233",7,2180,"truth_conditions","dangerdistinct","legs","generic",22,"silver",35,"True","ackles"
"234",7,3079,"truth_conditions","bare","scales","generic",23,"red",5,"False","blins"
"235",7,2829,"truth_conditions","bare","legs","generic",24,"yellow",15,"False","ludinos"
"236",7,4643,"truth_conditions","nondistinctive","ears","generic",25,"orange",45,"False","kazzes"
"237",7,2377,"truth_conditions","nondistinctive","legs","generic",26,"pink",25,"False","feps"
"238",7,5278,"truth_conditions","nondistinctive","feathers","generic",27,"red",5,"False","noobs"
"239",7,2308,"truth_conditions","bare","spots","generic",28,"copper",5,"False","glippets"
"240",7,2571,"truth_conditions","nondistinctive","scales","generic",29,"yellow",45,"False","dorbs"
"241",8,2810,"truth_conditions","bare","shells","generic",0,"green",5,"False","moxes"
"242",8,7600,"truth_conditions","bare","fur","generic",1,"silver",25,"False","morseths"
"243",8,1698,"truth_conditions","bare","legs","generic",2,"yellow",45,"False","ludinos"
"244",8,3750,"truth_conditions","dangerdistinct","ears","generic",3,"pink",35,"True","elleps"
"245",8,18792,"truth_conditions","dangerdistinct","feathers","generic",4,"gold",15,"True","plovs"
"246",8,2254,"truth_conditions","dangerdistinct","stripes","generic",5,"copper",5,"True","mooks"
"247",8,13366,"truth_conditions","nondistinctive","spots","generic",6,"gold",45,"False","stups"
"248",8,1712,"truth_conditions","nondistinctive","legs","generic",7,"pink",25,"False","feps"
"249",8,2546,"truth_conditions","dangerdistinct","tails","generic",8,"purple",45,"True","taifels"
"250",8,16207,"truth_conditions","nondistinctive","teeth","generic",9,"blue",25,"False","thups"
"251",8,1626,"truth_conditions","bare","feathers","generic",10,"purple",35,"False","lorches"
"252",8,1193,"truth_conditions","bare","stripes","generic",11,"gold",45,"False","daiths"
"253",8,1824,"truth_conditions","nondistinctive","scales","generic",12,"yellow",35,"False","dorbs"
"254",8,13620,"truth_conditions","dangerdistinct","scales","generic",13,"blue",25,"True","reesles"
"255",8,1358,"truth_conditions","bare","tails","generic",14,"orange",15,"False","zorbs"
"256",8,1541,"truth_conditions","dangerdistinct","shells","generic",15,"orange",5,"True","luzaks"
"257",8,12510,"truth_conditions","dangerdistinct","spots","generic",16,"red",45,"True","sapers"
"258",8,1926,"truth_conditions","nondistinctive","ears","generic",17,"orange",35,"False","kazzes"
"259",8,2601,"truth_conditions","nondistinctive","feathers","generic",18,"red",45,"False","noobs"
"260",8,1400,"truth_conditions","dangerdistinct","teeth","generic",19,"green",25,"True","zoovs"
"261",8,12438,"truth_conditions","dangerdistinct","fur","generic",20,"yellow",15,"True","ollers"
"262",8,1908,"truth_conditions","nondistinctive","stripes","generic",21,"silver",5,"False","frams"
"263",8,1554,"truth_conditions","nondistinctive","shells","generic",22,"purple",15,"False","javs"
"264",8,1670,"truth_conditions","bare","ears","generic",23,"blue",25,"False","cheebas"
"265",8,1478,"truth_conditions","dangerdistinct","legs","generic",24,"silver",35,"True","ackles"
"266",8,3349,"truth_conditions","nondistinctive","tails","generic",25,"green",5,"False","trufts"
"267",8,2056,"truth_conditions","bare","spots","generic",26,"copper",35,"False","glippets"
"268",8,7740,"truth_conditions","nondistinctive","fur","generic",27,"copper",15,"False","kweps"
"269",8,1202,"truth_conditions","bare","scales","generic",28,"red",5,"False","blins"
"270",8,2355,"truth_conditions","bare","teeth","generic",29,"pink",15,"False","krivels"
"271",9,12692,"truth_conditions","dangerdistinct","scales","generic",0,"blue",45,"True","reesles"
"272",9,9683,"truth_conditions","nondistinctive","shells","generic",1,"purple",25,"True","javs"
"273",9,2138,"truth_conditions","bare","feathers","generic",2,"purple",25,"False","lorches"
"274",9,1314,"truth_conditions","nondistinctive","teeth","generic",3,"blue",35,"True","thups"
"275",9,1059,"truth_conditions","dangerdistinct","legs","generic",4,"silver",5,"True","ackles"
"276",9,1449,"truth_conditions","dangerdistinct","spots","generic",5,"red",35,"False","sapers"
"277",9,1170,"truth_conditions","dangerdistinct","feathers","generic",6,"gold",45,"True","plovs"
"278",9,1485,"truth_conditions","nondistinctive","scales","generic",7,"yellow",5,"True","dorbs"
"279",9,2070,"truth_conditions","nondistinctive","feathers","generic",8,"red",5,"False","noobs"
"280",9,1238,"truth_conditions","dangerdistinct","shells","generic",9,"orange",35,"True","luzaks"
"281",9,2261,"truth_conditions","bare","spots","generic",10,"copper",45,"True","glippets"
"282",9,1630,"truth_conditions","dangerdistinct","stripes","generic",11,"copper",15,"False","mooks"
"283",9,1282,"truth_conditions","nondistinctive","fur","generic",12,"copper",15,"False","kweps"
"284",9,1225,"truth_conditions","bare","teeth","generic",13,"pink",35,"True","krivels"
"285",9,1506,"truth_conditions","dangerdistinct","ears","generic",14,"pink",15,"False","elleps"
"286",9,1204,"truth_conditions","bare","stripes","generic",15,"gold",5,"False","daiths"
"287",9,1339,"truth_conditions","dangerdistinct","tails","generic",16,"purple",5,"False","taifels"
"288",9,934,"truth_conditions","bare","fur","generic",17,"silver",35,"True","morseths"
"289",9,24559,"truth_conditions","nondistinctive","spots","generic",18,"gold",15,"True","stups"
"290",9,1383,"truth_conditions","bare","tails","generic",19,"orange",15,"False","zorbs"
"291",9,1361,"truth_conditions","dangerdistinct","fur","generic",20,"yellow",25,"False","ollers"
"292",9,1372,"truth_conditions","bare","legs","generic",21,"yellow",5,"True","ludinos"
"293",9,1249,"truth_conditions","bare","scales","generic",22,"red",25,"False","blins"
"294",9,1687,"truth_conditions","nondistinctive","ears","generic",23,"orange",45,"True","kazzes"
"295",9,901,"truth_conditions","nondistinctive","legs","generic",24,"pink",45,"False","feps"
"296",9,2902,"truth_conditions","dangerdistinct","teeth","generic",25,"green",25,"True","zoovs"
"297",9,1114,"truth_conditions","nondistinctive","tails","generic",26,"green",35,"False","trufts"
"298",9,1338,"truth_conditions","bare","shells","generic",27,"green",15,"False","moxes"
"299",9,1034,"truth_conditions","nondistinctive","stripes","generic",28,"silver",25,"False","frams"
"300",9,1260,"truth_conditions","bare","ears","generic",29,"blue",45,"False","cheebas"
"301",10,16932,"truth_conditions","dangerdistinct","stripes","generic",0,"copper",25,"False","mooks"
"302",10,7025,"truth_conditions","nondistinctive","feathers","generic",1,"red",35,"False","noobs"
"303",10,4366,"truth_conditions","nondistinctive","teeth","generic",2,"blue",25,"False","thups"
"304",10,3055,"truth_conditions","dangerdistinct","spots","generic",3,"red",35,"False","sapers"
"305",10,4671,"truth_conditions","bare","feathers","generic",4,"purple",15,"False","lorches"
"306",10,2937,"truth_conditions","dangerdistinct","feathers","generic",5,"gold",5,"False","plovs"
"307",10,3660,"truth_conditions","bare","shells","generic",6,"green",5,"False","moxes"
"308",10,2885,"truth_conditions","nondistinctive","ears","generic",7,"orange",15,"False","kazzes"
"309",10,5222,"truth_conditions","bare","legs","generic",8,"yellow",45,"False","ludinos"
"310",10,2757,"truth_conditions","dangerdistinct","ears","generic",9,"pink",35,"False","elleps"
"311",10,3147,"truth_conditions","bare","fur","generic",10,"silver",25,"False","morseths"
"312",10,3552,"truth_conditions","dangerdistinct","legs","generic",11,"silver",45,"False","ackles"
"313",10,2238,"truth_conditions","nondistinctive","shells","generic",12,"purple",35,"False","javs"
"314",10,1925,"truth_conditions","dangerdistinct","tails","generic",13,"purple",25,"False","taifels"
"315",10,2781,"truth_conditions","bare","ears","generic",14,"blue",35,"False","cheebas"
"316",10,2090,"truth_conditions","nondistinctive","spots","generic",15,"gold",5,"False","stups"
"317",10,2845,"truth_conditions","nondistinctive","scales","generic",16,"yellow",45,"False","dorbs"
"318",10,1950,"truth_conditions","nondistinctive","legs","generic",17,"pink",5,"False","feps"
"319",10,3744,"truth_conditions","bare","stripes","generic",18,"gold",25,"False","daiths"
"320",10,2745,"truth_conditions","dangerdistinct","teeth","generic",19,"green",15,"False","zoovs"
"321",10,1973,"truth_conditions","bare","spots","generic",20,"copper",45,"False","glippets"
"322",10,2207,"truth_conditions","dangerdistinct","fur","generic",21,"yellow",5,"False","ollers"
"323",10,2934,"truth_conditions","bare","scales","generic",22,"red",35,"False","blins"
"324",10,1455,"truth_conditions","dangerdistinct","shells","generic",23,"orange",45,"False","luzaks"
"325",10,1654,"truth_conditions","nondistinctive","stripes","generic",24,"silver",45,"False","frams"
"326",10,2590,"truth_conditions","bare","teeth","generic",25,"pink",5,"False","krivels"
"327",10,2609,"truth_conditions","nondistinctive","tails","generic",26,"green",25,"False","trufts"
"328",10,2696,"truth_conditions","dangerdistinct","scales","generic",27,"blue",15,"False","reesles"
"329",10,2300,"truth_conditions","nondistinctive","fur","generic",28,"copper",15,"False","kweps"
"330",10,2162,"truth_conditions","bare","tails","generic",29,"orange",15,"False","zorbs"
"331",11,29131,"truth_conditions","dangerdistinct","stripes","generic",0,"copper",5,"False","mooks"
"332",11,16656,"truth_conditions","dangerdistinct","ears","generic",1,"pink",25,"True","elleps"
"333",11,6400,"truth_conditions","bare","fur","generic",2,"silver",25,"False","morseths"
"334",11,16488,"truth_conditions","nondistinctive","stripes","generic",3,"silver",15,"True","frams"
"335",11,8997,"truth_conditions","bare","teeth","generic",4,"pink",45,"True","krivels"
"336",11,11871,"truth_conditions","nondistinctive","ears","generic",5,"orange",35,"True","kazzes"
"337",11,8563,"truth_conditions","dangerdistinct","scales","generic",6,"blue",15,"True","reesles"
"338",11,8763,"truth_conditions","nondistinctive","scales","generic",7,"yellow",5,"True","dorbs"
"339",11,7403,"truth_conditions","nondistinctive","fur","generic",8,"copper",35,"True","kweps"
"340",11,10069,"truth_conditions","nondistinctive","teeth","generic",9,"blue",5,"True","thups"
"341",11,4606,"truth_conditions","bare","scales","generic",10,"red",35,"True","blins"
"342",11,7315,"truth_conditions","nondistinctive","tails","generic",11,"green",45,"True","trufts"
"343",11,6794,"truth_conditions","dangerdistinct","teeth","generic",12,"green",45,"True","zoovs"
"344",11,5004,"truth_conditions","bare","spots","generic",13,"copper",25,"True","glippets"
"345",11,8537,"truth_conditions","dangerdistinct","feathers","generic",14,"gold",25,"True","plovs"
"346",11,5621,"truth_conditions","dangerdistinct","legs","generic",15,"silver",35,"True","ackles"
"347",11,3495,"truth_conditions","bare","tails","generic",16,"orange",5,"True","zorbs"
"348",11,4916,"truth_conditions","nondistinctive","shells","generic",17,"purple",15,"True","javs"
"349",11,3844,"truth_conditions","nondistinctive","legs","generic",18,"pink",25,"True","feps"
"350",11,4880,"truth_conditions","dangerdistinct","fur","generic",19,"yellow",45,"True","ollers"
"351",11,6265,"truth_conditions","dangerdistinct","tails","generic",20,"purple",15,"True","taifels"
"352",11,4313,"truth_conditions","bare","legs","generic",21,"yellow",45,"True","ludinos"
"353",11,6323,"truth_conditions","bare","ears","generic",22,"blue",35,"True","cheebas"
"354",11,3446,"truth_conditions","bare","shells","generic",23,"green",15,"True","moxes"
"355",11,10749,"truth_conditions","dangerdistinct","spots","generic",24,"red",5,"True","sapers"
"356",11,10474,"truth_conditions","nondistinctive","feathers","generic",25,"red",25,"True","noobs"
"357",11,3864,"truth_conditions","nondistinctive","spots","generic",26,"gold",45,"True","stups"
"358",11,4164,"truth_conditions","bare","feathers","generic",27,"purple",15,"True","lorches"
"359",11,6581,"truth_conditions","dangerdistinct","shells","generic",28,"orange",35,"True","luzaks"
"360",11,3943,"truth_conditions","bare","stripes","generic",29,"gold",5,"True","daiths"
"361",12,19842,"truth_conditions","nondistinctive","shells","generic",0,"purple",25,"False","javs"
"362",12,8721,"truth_conditions","nondistinctive","stripes","generic",1,"silver",35,"False","frams"
"363",12,17054,"truth_conditions","dangerdistinct","stripes","generic",2,"copper",25,"True","mooks"
"364",12,4848,"truth_conditions","bare","teeth","generic",3,"pink",15,"False","krivels"
"365",12,4083,"truth_conditions","bare","ears","generic",4,"blue",45,"False","cheebas"
"366",12,16756,"truth_conditions","nondistinctive","teeth","generic",5,"blue",45,"True","thups"
"367",12,4833,"truth_conditions","bare","stripes","generic",6,"gold",5,"False","daiths"
"368",12,10190,"truth_conditions","nondistinctive","tails","generic",7,"green",15,"False","trufts"
"369",12,9412,"truth_conditions","nondistinctive","scales","generic",8,"yellow",25,"True","dorbs"
"370",12,3816,"truth_conditions","bare","shells","generic",9,"green",25,"True","moxes"
"371",12,6760,"truth_conditions","bare","legs","generic",10,"yellow",5,"False","ludinos"
"372",12,5354,"truth_conditions","bare","tails","generic",11,"orange",15,"False","zorbs"
"373",12,9985,"truth_conditions","dangerdistinct","legs","generic",12,"silver",15,"True","ackles"
"374",12,8058,"truth_conditions","dangerdistinct","tails","generic",13,"purple",35,"True","taifels"
"375",12,4812,"truth_conditions","bare","spots","generic",14,"copper",45,"True","glippets"
"376",12,6547,"truth_conditions","dangerdistinct","ears","generic",15,"pink",5,"True","elleps"
"377",12,7120,"truth_conditions","dangerdistinct","shells","generic",16,"orange",15,"True","luzaks"
"378",12,6356,"truth_conditions","dangerdistinct","scales","generic",17,"blue",5,"True","reesles"
"379",12,8166,"truth_conditions","nondistinctive","ears","generic",18,"orange",45,"True","kazzes"
"380",12,9057,"truth_conditions","nondistinctive","legs","generic",19,"pink",15,"False","feps"
"381",12,3875,"truth_conditions","bare","scales","generic",20,"red",25,"True","blins"
"382",12,3125,"truth_conditions","bare","feathers","generic",21,"purple",35,"True","lorches"
"383",12,4309,"truth_conditions","nondistinctive","spots","generic",22,"gold",5,"True","stups"
"384",12,5225,"truth_conditions","dangerdistinct","spots","generic",23,"red",45,"True","sapers"
"385",12,5322,"truth_conditions","nondistinctive","fur","generic",24,"copper",35,"True","kweps"
"386",12,5754,"truth_conditions","dangerdistinct","fur","generic",25,"yellow",35,"True","ollers"
"387",12,7906,"truth_conditions","dangerdistinct","teeth","generic",26,"green",45,"True","zoovs"
"388",12,7182,"truth_conditions","nondistinctive","feathers","generic",27,"red",5,"False","noobs"
"389",12,4517,"truth_conditions","dangerdistinct","feathers","generic",28,"gold",25,"True","plovs"
"390",12,3888,"truth_conditions","bare","fur","generic",29,"silver",35,"True","morseths"
"391",13,12588,"truth_conditions","nondistinctive","teeth","generic",0,"blue",5,"True","thups"
"392",13,3318,"truth_conditions","bare","teeth","generic",1,"pink",25,"True","krivels"
"393",13,16481,"truth_conditions","nondistinctive","spots","generic",2,"gold",15,"True","stups"
"394",13,4416,"truth_conditions","dangerdistinct","scales","generic",3,"blue",15,"True","reesles"
"395",13,2253,"truth_conditions","bare","fur","generic",4,"silver",25,"True","morseths"
"396",13,3049,"truth_conditions","nondistinctive","ears","generic",5,"orange",35,"True","kazzes"
"397",13,3151,"truth_conditions","dangerdistinct","spots","generic",6,"red",25,"True","sapers"
"398",13,12263,"truth_conditions","dangerdistinct","feathers","generic",7,"gold",5,"True","plovs"
"399",13,3768,"truth_conditions","dangerdistinct","legs","generic",8,"silver",25,"True","ackles"
"400",13,4163,"truth_conditions","nondistinctive","stripes","generic",9,"silver",35,"True","frams"
"401",13,2470,"truth_conditions","dangerdistinct","stripes","generic",10,"copper",5,"True","mooks"
"402",13,2400,"truth_conditions","nondistinctive","scales","generic",11,"yellow",45,"True","dorbs"
"403",13,2815,"truth_conditions","nondistinctive","feathers","generic",12,"red",45,"True","noobs"
"404",13,2217,"truth_conditions","nondistinctive","legs","generic",13,"pink",15,"True","feps"
"405",13,3032,"truth_conditions","dangerdistinct","fur","generic",14,"yellow",45,"True","ollers"
"406",13,2068,"truth_conditions","nondistinctive","tails","generic",15,"green",25,"True","trufts"
"407",13,2583,"truth_conditions","dangerdistinct","teeth","generic",16,"green",35,"True","zoovs"
"408",13,4884,"truth_conditions","bare","shells","generic",17,"green",45,"True","moxes"
"409",13,3233,"truth_conditions","nondistinctive","fur","generic",18,"copper",5,"True","kweps"
"410",13,3298,"truth_conditions","bare","feathers","generic",19,"purple",5,"True","lorches"
"411",13,2099,"truth_conditions","bare","spots","generic",20,"copper",35,"True","glippets"
"412",13,2286,"truth_conditions","bare","legs","generic",21,"yellow",35,"True","ludinos"
"413",13,3516,"truth_conditions","dangerdistinct","tails","generic",22,"purple",15,"True","taifels"
"414",13,2184,"truth_conditions","bare","tails","generic",23,"orange",5,"True","zorbs"
"415",13,2149,"truth_conditions","bare","stripes","generic",24,"gold",15,"True","daiths"
"416",13,3051,"truth_conditions","dangerdistinct","ears","generic",25,"pink",45,"True","elleps"
"417",13,1549,"truth_conditions","bare","ears","generic",26,"blue",45,"True","cheebas"
"418",13,2200,"truth_conditions","nondistinctive","shells","generic",27,"purple",25,"True","javs"
"419",13,2134,"truth_conditions","dangerdistinct","shells","generic",28,"orange",35,"True","luzaks"
"420",13,1900,"truth_conditions","bare","scales","generic",29,"red",15,"True","blins"
"421",14,9341,"truth_conditions","nondistinctive","feathers","generic",0,"red",45,"True","noobs"
"422",14,3336,"truth_conditions","bare","spots","generic",1,"copper",25,"True","glippets"
"423",14,4790,"truth_conditions","dangerdistinct","legs","generic",2,"silver",15,"True","ackles"
"424",14,2144,"truth_conditions","bare","teeth","generic",3,"pink",45,"True","krivels"
"425",14,2223,"truth_conditions","bare","scales","generic",4,"red",25,"True","blins"
"426",14,4152,"truth_conditions","dangerdistinct","teeth","generic",5,"green",25,"True","zoovs"
"427",14,3383,"truth_conditions","dangerdistinct","stripes","generic",6,"copper",15,"True","mooks"
"428",14,3975,"truth_conditions","nondistinctive","spots","generic",7,"gold",35,"False","stups"
"429",14,1871,"truth_conditions","bare","legs","generic",8,"yellow",5,"False","ludinos"
"430",14,6079,"truth_conditions","nondistinctive","shells","generic",9,"purple",25,"False","javs"
"431",14,5195,"truth_conditions","dangerdistinct","spots","generic",10,"red",5,"True","sapers"
"432",14,2451,"truth_conditions","bare","fur","generic",11,"silver",15,"False","morseths"
"433",14,2014,"truth_conditions","bare","shells","generic",12,"green",35,"False","moxes"
"434",14,1375,"truth_conditions","bare","ears","generic",13,"blue",45,"True","cheebas"
"435",14,3648,"truth_conditions","dangerdistinct","feathers","generic",14,"gold",35,"True","plovs"
"436",14,3190,"truth_conditions","nondistinctive","fur","generic",15,"copper",5,"False","kweps"
"437",14,3784,"truth_conditions","nondistinctive","scales","generic",16,"yellow",45,"True","dorbs"
"438",14,1783,"truth_conditions","bare","feathers","generic",17,"purple",15,"False","lorches"
"439",14,2615,"truth_conditions","nondistinctive","legs","generic",18,"pink",25,"False","feps"
"440",14,2640,"truth_conditions","nondistinctive","tails","generic",19,"green",15,"False","trufts"
"441",14,4033,"truth_conditions","dangerdistinct","fur","generic",20,"yellow",35,"True","ollers"
"442",14,3269,"truth_conditions","nondistinctive","stripes","generic",21,"silver",35,"False","frams"
"443",14,3038,"truth_conditions","dangerdistinct","shells","generic",22,"orange",45,"True","luzaks"
"444",14,2616,"truth_conditions","dangerdistinct","scales","generic",23,"blue",25,"True","reesles"
"445",14,4664,"truth_conditions","dangerdistinct","tails","generic",24,"purple",5,"True","taifels"
"446",14,2711,"truth_conditions","dangerdistinct","ears","generic",25,"pink",45,"True","elleps"
"447",14,2391,"truth_conditions","bare","stripes","generic",26,"gold",5,"False","daiths"
"448",14,1663,"truth_conditions","bare","tails","generic",27,"orange",35,"False","zorbs"
"449",14,2743,"truth_conditions","nondistinctive","teeth","generic",28,"blue",5,"False","thups"
"450",14,2695,"truth_conditions","nondistinctive","ears","generic",29,"orange",15,"False","kazzes"
"451",15,13562,"truth_conditions","bare","tails","generic",0,"orange",35,"False","zorbs"
"452",15,14210,"truth_conditions","dangerdistinct","teeth","generic",1,"green",45,"False","zoovs"
"453",15,5186,"truth_conditions","bare","fur","generic",2,"silver",25,"False","morseths"
"454",15,6673,"truth_conditions","dangerdistinct","shells","generic",3,"orange",5,"False","luzaks"
"455",15,5156,"truth_conditions","bare","feathers","generic",4,"purple",15,"False","lorches"
"456",15,9727,"truth_conditions","nondistinctive","teeth","generic",5,"blue",35,"False","thups"
"457",15,6172,"truth_conditions","nondistinctive","spots","generic",6,"gold",25,"False","stups"
"458",15,8058,"truth_conditions","nondistinctive","fur","generic",7,"copper",15,"False","kweps"
"459",15,4302,"truth_conditions","bare","shells","generic",8,"green",25,"False","moxes"
"460",15,7777,"truth_conditions","dangerdistinct","ears","generic",9,"pink",35,"True","elleps"
"461",15,4086,"truth_conditions","bare","ears","generic",10,"blue",45,"True","cheebas"
"462",15,6791,"truth_conditions","nondistinctive","shells","generic",11,"purple",5,"False","javs"
"463",15,6261,"truth_conditions","nondistinctive","feathers","generic",12,"red",45,"False","noobs"
"464",15,12030,"truth_conditions","nondistinctive","tails","generic",13,"green",15,"False","trufts"
"465",15,9984,"truth_conditions","nondistinctive","stripes","generic",14,"silver",35,"False","frams"
"466",15,7189,"truth_conditions","dangerdistinct","legs","generic",15,"silver",45,"False","ackles"
"467",15,5347,"truth_conditions","nondistinctive","scales","generic",16,"yellow",25,"False","dorbs"
"468",15,6360,"truth_conditions","dangerdistinct","feathers","generic",17,"gold",5,"False","plovs"
"469",15,3631,"truth_conditions","nondistinctive","ears","generic",18,"orange",45,"False","kazzes"
"470",15,3167,"truth_conditions","nondistinctive","legs","generic",19,"pink",5,"False","feps"
"471",15,3871,"truth_conditions","bare","spots","generic",20,"copper",45,"False","glippets"
"472",15,2787,"truth_conditions","bare","scales","generic",21,"red",15,"False","blins"
"473",15,2550,"truth_conditions","bare","legs","generic",22,"yellow",5,"False","ludinos"
"474",15,3936,"truth_conditions","dangerdistinct","spots","generic",23,"red",25,"False","sapers"
"475",15,4327,"truth_conditions","dangerdistinct","tails","generic",24,"purple",15,"False","taifels"
"476",15,4155,"truth_conditions","bare","stripes","generic",25,"gold",5,"False","daiths"
"477",15,2876,"truth_conditions","dangerdistinct","stripes","generic",26,"copper",25,"False","mooks"
"478",15,4024,"truth_conditions","dangerdistinct","scales","generic",27,"blue",15,"False","reesles"
"479",15,9284,"truth_conditions","dangerdistinct","fur","generic",28,"yellow",35,"False","ollers"
"480",15,3394,"truth_conditions","bare","teeth","generic",29,"pink",35,"False","krivels"
"481",16,16273,"truth_conditions","nondistinctive","scales","generic",0,"yellow",35,"True","dorbs"
"482",16,3681,"truth_conditions","nondistinctive","stripes","generic",1,"silver",15,"False","frams"
"483",16,10065,"truth_conditions","nondistinctive","feathers","generic",2,"red",35,"True","noobs"
"484",16,2548,"truth_conditions","bare","spots","generic",3,"copper",35,"True","glippets"
"485",16,2975,"truth_conditions","dangerdistinct","teeth","generic",4,"green",5,"False","zoovs"
"486",16,2556,"truth_conditions","bare","scales","generic",5,"red",5,"False","blins"
"487",16,2653,"truth_conditions","dangerdistinct","ears","generic",6,"pink",45,"True","elleps"
"488",16,4757,"truth_conditions","bare","legs","generic",7,"yellow",25,"True","ludinos"
"489",16,6275,"truth_conditions","dangerdistinct","shells","generic",8,"orange",35,"True","luzaks"
"490",16,4309,"truth_conditions","nondistinctive","spots","generic",9,"gold",5,"False","stups"
"491",16,4653,"truth_conditions","dangerdistinct","spots","generic",10,"red",25,"True","sapers"
"492",16,7988,"truth_conditions","nondistinctive","legs","generic",11,"pink",25,"True","feps"
"493",16,3374,"truth_conditions","nondistinctive","shells","generic",12,"purple",45,"True","javs"
"494",16,2317,"truth_conditions","bare","feathers","generic",13,"purple",45,"True","lorches"
"495",16,4380,"truth_conditions","nondistinctive","teeth","generic",14,"blue",15,"False","thups"
"496",16,3988,"truth_conditions","nondistinctive","fur","generic",15,"copper",25,"True","kweps"
"497",16,6214,"truth_conditions","bare","shells","generic",16,"green",15,"True","moxes"
"498",16,4620,"truth_conditions","dangerdistinct","tails","generic",17,"purple",5,"False","taifels"
"499",16,5216,"truth_conditions","dangerdistinct","stripes","generic",18,"copper",15,"True","mooks"
"500",16,4534,"truth_conditions","dangerdistinct","legs","generic",19,"silver",35,"True","ackles"
"501",16,3394,"truth_conditions","bare","tails","generic",20,"orange",5,"False","zorbs"
"502",16,2073,"truth_conditions","bare","fur","generic",21,"silver",35,"True","morseths"
"503",16,2322,"truth_conditions","bare","teeth","generic",22,"pink",45,"True","krivels"
"504",16,11686,"truth_conditions","bare","ears","generic",23,"blue",15,"False","cheebas"
"505",16,1672,"truth_conditions","bare","stripes","generic",24,"gold",25,"True","daiths"
"506",16,3158,"truth_conditions","dangerdistinct","fur","generic",25,"yellow",25,"True","ollers"
"507",16,1945,"truth_conditions","dangerdistinct","scales","generic",26,"blue",45,"True","reesles"
"508",16,3460,"truth_conditions","nondistinctive","tails","generic",27,"green",5,"False","trufts"
"509",16,2613,"truth_conditions","nondistinctive","ears","generic",28,"orange",45,"True","kazzes"
"510",16,6322,"truth_conditions","dangerdistinct","feathers","generic",29,"gold",15,"False","plovs"
"511",17,5368,"truth_conditions","dangerdistinct","stripes","generic",0,"copper",45,"True","mooks"
"512",17,1618,"truth_conditions","bare","fur","generic",1,"silver",15,"False","morseths"
"513",17,3524,"truth_conditions","dangerdistinct","fur","generic",2,"yellow",15,"False","ollers"
"514",17,2552,"truth_conditions","nondistinctive","legs","generic",3,"pink",15,"False","feps"
"515",17,2279,"truth_conditions","nondistinctive","tails","generic",4,"green",15,"False","trufts"
"516",17,3194,"truth_conditions","nondistinctive","shells","generic",5,"purple",45,"True","javs"
"517",17,1782,"truth_conditions","bare","tails","generic",6,"orange",35,"False","zorbs"
"518",17,1692,"truth_conditions","bare","teeth","generic",7,"pink",5,"False","krivels"
"519",17,2614,"truth_conditions","nondistinctive","scales","generic",8,"yellow",35,"False","dorbs"
"520",17,2915,"truth_conditions","nondistinctive","spots","generic",9,"gold",45,"False","stups"
"521",17,1900,"truth_conditions","dangerdistinct","legs","generic",10,"silver",25,"True","ackles"
"522",17,2541,"truth_conditions","bare","spots","generic",11,"copper",45,"True","glippets"
"523",17,3541,"truth_conditions","bare","feathers","generic",12,"purple",5,"False","lorches"
"524",17,3812,"truth_conditions","dangerdistinct","shells","generic",13,"orange",35,"True","luzaks"
"525",17,3403,"truth_conditions","nondistinctive","stripes","generic",14,"silver",25,"False","frams"
"526",17,1756,"truth_conditions","bare","shells","generic",15,"green",25,"False","moxes"
"527",17,1992,"truth_conditions","dangerdistinct","teeth","generic",16,"green",25,"True","zoovs"
"528",17,1684,"truth_conditions","dangerdistinct","tails","generic",17,"purple",45,"True","taifels"
"529",17,1796,"truth_conditions","dangerdistinct","feathers","generic",18,"gold",5,"False","plovs"
"530",17,1926,"truth_conditions","nondistinctive","ears","generic",19,"orange",5,"False","kazzes"
"531",17,1702,"truth_conditions","bare","stripes","generic",20,"gold",45,"True","daiths"
"532",17,2072,"truth_conditions","nondistinctive","teeth","generic",21,"blue",25,"False","thups"
"533",17,1532,"truth_conditions","nondistinctive","feathers","generic",22,"red",35,"False","noobs"
"534",17,1380,"truth_conditions","bare","legs","generic",23,"yellow",15,"False","ludinos"
"535",17,1390,"truth_conditions","bare","ears","generic",24,"blue",35,"False","cheebas"
"536",17,2921,"truth_conditions","nondistinctive","fur","generic",25,"copper",5,"False","kweps"
"537",17,1317,"truth_conditions","bare","scales","generic",26,"red",25,"False","blins"
"538",17,2159,"truth_conditions","dangerdistinct","scales","generic",27,"blue",5,"True","reesles"
"539",17,2042,"truth_conditions","dangerdistinct","spots","generic",28,"red",35,"True","sapers"
"540",17,2651,"truth_conditions","dangerdistinct","ears","generic",29,"pink",15,"True","elleps"
"541",18,10820,"truth_conditions","bare","scales","generic",0,"red",15,"False","blins"
"542",18,6691,"truth_conditions","bare","tails","generic",1,"orange",35,"False","zorbs"
"543",18,13810,"truth_conditions","dangerdistinct","fur","generic",2,"yellow",25,"True","ollers"
"544",18,6338,"truth_conditions","bare","spots","generic",3,"copper",5,"True","glippets"
"545",18,7426,"truth_conditions","bare","teeth","generic",4,"pink",45,"False","krivels"
"546",18,9998,"truth_conditions","dangerdistinct","teeth","generic",5,"green",25,"True","zoovs"
"547",18,9224,"truth_conditions","dangerdistinct","feathers","generic",6,"gold",35,"True","plovs"
"548",18,8860,"truth_conditions","dangerdistinct","legs","generic",7,"silver",15,"True","ackles"
"549",18,6567,"truth_conditions","bare","stripes","generic",8,"gold",15,"False","daiths"
"550",18,9015,"truth_conditions","dangerdistinct","scales","generic",9,"blue",5,"True","reesles"
"551",18,12619,"truth_conditions","nondistinctive","ears","generic",10,"orange",5,"False","kazzes"
"552",18,8038,"truth_conditions","bare","shells","generic",11,"green",25,"True","moxes"
"553",18,8477,"truth_conditions","nondistinctive","tails","generic",12,"green",5,"False","trufts"
"554",18,9361,"truth_conditions","bare","ears","generic",13,"blue",45,"False","cheebas"
"555",18,10143,"truth_conditions","dangerdistinct","shells","generic",14,"orange",45,"False","luzaks"
"556",18,6910,"truth_conditions","bare","fur","generic",15,"silver",25,"False","morseths"
"557",18,7018,"truth_conditions","dangerdistinct","ears","generic",16,"pink",5,"True","elleps"
"558",18,7912,"truth_conditions","dangerdistinct","spots","generic",17,"red",15,"True","sapers"
"559",18,12882,"truth_conditions","nondistinctive","fur","generic",18,"copper",35,"True","kweps"
"560",18,7882,"truth_conditions","dangerdistinct","tails","generic",19,"purple",45,"True","taifels"
"561",18,5430,"truth_conditions","nondistinctive","scales","generic",20,"yellow",15,"False","dorbs"
"562",18,7843,"truth_conditions","dangerdistinct","stripes","generic",21,"copper",35,"True","mooks"
"563",18,8403,"truth_conditions","nondistinctive","legs","generic",22,"pink",35,"True","feps"
"564",18,8586,"truth_conditions","nondistinctive","stripes","generic",23,"silver",15,"True","frams"
"565",18,15640,"truth_conditions","bare","legs","generic",24,"yellow",5,"False","ludinos"
"566",18,7832,"truth_conditions","nondistinctive","feathers","generic",25,"red",25,"True","noobs"
"567",18,6552,"truth_conditions","nondistinctive","teeth","generic",26,"blue",25,"False","thups"
"568",18,8462,"truth_conditions","nondistinctive","spots","generic",27,"gold",45,"True","stups"
"569",18,4995,"truth_conditions","bare","feathers","generic",28,"purple",35,"False","lorches"
"570",18,6111,"truth_conditions","nondistinctive","shells","generic",29,"purple",45,"False","javs"
"571",19,18030,"truth_conditions","dangerdistinct","ears","generic",0,"pink",15,"True","elleps"
"572",19,15429,"truth_conditions","nondistinctive","shells","generic",1,"purple",35,"True","javs"
"573",19,8294,"truth_conditions","nondistinctive","fur","generic",2,"copper",5,"True","kweps"
"574",19,6005,"truth_conditions","bare","fur","generic",3,"silver",15,"True","morseths"
"575",19,6109,"truth_conditions","bare","ears","generic",4,"blue",25,"True","cheebas"
"576",19,6607,"truth_conditions","bare","teeth","generic",5,"pink",15,"True","krivels"
"577",19,7790,"truth_conditions","bare","spots","generic",6,"copper",35,"True","glippets"
"578",19,6501,"truth_conditions","nondistinctive","scales","generic",7,"yellow",45,"True","dorbs"
"579",19,5192,"truth_conditions","nondistinctive","teeth","generic",8,"blue",25,"True","thups"
"580",19,10258,"truth_conditions","dangerdistinct","teeth","generic",9,"green",35,"True","zoovs"
"581",19,4098,"truth_conditions","bare","stripes","generic",10,"gold",45,"True","daiths"
"582",19,6513,"truth_conditions","nondistinctive","legs","generic",11,"pink",45,"True","feps"
"583",19,9211,"truth_conditions","dangerdistinct","scales","generic",12,"blue",5,"True","reesles"
"584",19,5470,"truth_conditions","bare","tails","generic",13,"orange",5,"True","zorbs"
"585",19,5455,"truth_conditions","nondistinctive","ears","generic",14,"orange",25,"True","kazzes"
"586",19,4603,"truth_conditions","dangerdistinct","feathers","generic",15,"gold",15,"True","plovs"
"587",19,6157,"truth_conditions","dangerdistinct","spots","generic",16,"red",25,"True","sapers"
"588",19,5284,"truth_conditions","dangerdistinct","fur","generic",17,"yellow",5,"True","ollers"
"589",19,6613,"truth_conditions","nondistinctive","spots","generic",18,"gold",5,"True","stups"
"590",19,7268,"truth_conditions","bare","scales","generic",19,"red",45,"True","blins"
"591",19,4063,"truth_conditions","dangerdistinct","shells","generic",20,"orange",35,"True","luzaks"
"592",19,3955,"truth_conditions","bare","shells","generic",21,"green",25,"True","moxes"
"593",19,4106,"truth_conditions","nondistinctive","feathers","generic",22,"red",15,"True","noobs"
"594",19,3566,"truth_conditions","dangerdistinct","legs","generic",23,"silver",45,"True","ackles"
"595",19,4982,"truth_conditions","dangerdistinct","tails","generic",24,"purple",25,"True","taifels"
"596",19,4242,"truth_conditions","bare","feathers","generic",25,"purple",5,"True","lorches"
"597",19,9494,"truth_conditions","nondistinctive","tails","generic",26,"green",15,"True","trufts"
"598",19,6640,"truth_conditions","dangerdistinct","stripes","generic",27,"copper",45,"True","mooks"
"599",19,7816,"truth_conditions","nondistinctive","stripes","generic",28,"silver",35,"True","frams"
"600",19,4986,"truth_conditions","bare","legs","generic",29,"yellow",35,"True","ludinos"
"601",20,51530,"truth_conditions","nondistinctive","fur","generic",0,"copper",35,"True","kweps"
"602",20,42837,"truth_conditions","bare","feathers","generic",1,"purple",15,"True","lorches"
"603",20,12423,"truth_conditions","dangerdistinct","legs","generic",2,"silver",5,"True","ackles"
"604",20,6138,"truth_conditions","bare","teeth","generic",3,"pink",45,"True","krivels"
"605",20,4252,"truth_conditions","bare","spots","generic",4,"copper",25,"True","glippets"
"606",20,8117,"truth_conditions","nondistinctive","stripes","generic",5,"silver",35,"True","frams"
"607",20,7998,"truth_conditions","dangerdistinct","fur","generic",6,"yellow",45,"True","ollers"
"608",20,8102,"truth_conditions","dangerdistinct","spots","generic",7,"red",15,"True","sapers"
"609",20,10266,"truth_conditions","nondistinctive","spots","generic",8,"gold",45,"True","stups"
"610",20,7516,"truth_conditions","dangerdistinct","ears","generic",9,"pink",5,"True","elleps"
"611",20,7033,"truth_conditions","dangerdistinct","feathers","generic",10,"gold",15,"True","plovs"
"612",20,4048,"truth_conditions","bare","stripes","generic",11,"gold",45,"True","daiths"
"613",20,3983,"truth_conditions","bare","scales","generic",12,"red",15,"True","blins"
"614",20,7884,"truth_conditions","nondistinctive","teeth","generic",13,"blue",25,"True","thups"
"615",20,7917,"truth_conditions","dangerdistinct","stripes","generic",14,"copper",45,"True","mooks"
"616",20,6164,"truth_conditions","nondistinctive","ears","generic",15,"orange",45,"True","kazzes"
"617",20,3850,"truth_conditions","dangerdistinct","teeth","generic",16,"green",25,"True","zoovs"
"618",20,3784,"truth_conditions","bare","shells","generic",17,"green",35,"True","moxes"
"619",20,6870,"truth_conditions","nondistinctive","shells","generic",18,"purple",5,"True","javs"
"620",20,3581,"truth_conditions","bare","fur","generic",19,"silver",35,"True","morseths"
"621",20,6883,"truth_conditions","dangerdistinct","scales","generic",20,"blue",35,"True","reesles"
"622",20,6269,"truth_conditions","nondistinctive","feathers","generic",21,"red",5,"True","noobs"
"623",20,3449,"truth_conditions","bare","ears","generic",22,"blue",25,"True","cheebas"
"624",20,7516,"truth_conditions","dangerdistinct","tails","generic",23,"purple",25,"True","taifels"
"625",20,5136,"truth_conditions","bare","legs","generic",24,"yellow",5,"True","ludinos"
"626",20,6547,"truth_conditions","nondistinctive","legs","generic",25,"pink",15,"True","feps"
"627",20,6216,"truth_conditions","dangerdistinct","shells","generic",26,"orange",35,"True","luzaks"
"628",20,6551,"truth_conditions","nondistinctive","scales","generic",27,"yellow",15,"True","dorbs"
"629",20,7684,"truth_conditions","nondistinctive","tails","generic",28,"green",25,"True","trufts"
"630",20,4830,"truth_conditions","bare","tails","generic",29,"orange",5,"True","zorbs"
"631",21,18382,"truth_conditions","dangerdistinct","spots","generic",0,"red",35,"True","sapers"
"632",21,10598,"truth_conditions","nondistinctive","shells","generic",1,"purple",35,"True","javs"
"633",21,5423,"truth_conditions","bare","stripes","generic",2,"gold",25,"True","daiths"
"634",21,9111,"truth_conditions","nondistinctive","teeth","generic",3,"blue",5,"True","thups"
"635",21,10063,"truth_conditions","nondistinctive","fur","generic",4,"copper",35,"True","kweps"
"636",21,10376,"truth_conditions","nondistinctive","spots","generic",5,"gold",25,"True","stups"
"637",21,8143,"truth_conditions","dangerdistinct","teeth","generic",6,"green",5,"True","zoovs"
"638",21,6111,"truth_conditions","bare","legs","generic",7,"yellow",45,"True","ludinos"
"639",21,7328,"truth_conditions","bare","spots","generic",8,"copper",15,"True","glippets"
"640",21,7967,"truth_conditions","dangerdistinct","tails","generic",9,"purple",25,"True","taifels"
"641",21,7065,"truth_conditions","dangerdistinct","ears","generic",10,"pink",5,"True","elleps"
"642",21,14361,"truth_conditions","nondistinctive","feathers","generic",11,"red",25,"True","noobs"
"643",21,8112,"truth_conditions","dangerdistinct","fur","generic",12,"yellow",15,"True","ollers"
"644",21,7520,"truth_conditions","dangerdistinct","feathers","generic",13,"gold",15,"True","plovs"
"645",21,9663,"truth_conditions","nondistinctive","scales","generic",14,"yellow",15,"True","dorbs"
"646",21,10080,"truth_conditions","dangerdistinct","scales","generic",15,"blue",35,"True","reesles"
"647",21,4519,"truth_conditions","bare","tails","generic",16,"orange",5,"True","zorbs"
"648",21,3832,"truth_conditions","bare","feathers","generic",17,"purple",15,"True","lorches"
"649",21,8159,"truth_conditions","nondistinctive","stripes","generic",18,"silver",15,"True","frams"
"650",21,3663,"truth_conditions","nondistinctive","tails","generic",19,"green",5,"True","trufts"
"651",21,6104,"truth_conditions","dangerdistinct","legs","generic",20,"silver",45,"True","ackles"
"652",21,10904,"truth_conditions","dangerdistinct","shells","generic",21,"orange",45,"True","luzaks"
"653",21,9551,"truth_conditions","dangerdistinct","stripes","generic",22,"copper",25,"True","mooks"
"654",21,5352,"truth_conditions","bare","scales","generic",23,"red",5,"True","blins"
"655",21,3840,"truth_conditions","bare","teeth","generic",24,"pink",25,"True","krivels"
"656",21,19143,"truth_conditions","nondistinctive","ears","generic",25,"orange",45,"True","kazzes"
"657",21,7904,"truth_conditions","bare","ears","generic",26,"blue",35,"True","cheebas"
"658",21,3191,"truth_conditions","bare","fur","generic",27,"silver",35,"True","morseths"
"659",21,5697,"truth_conditions","bare","shells","generic",28,"green",45,"True","moxes"
"660",21,6616,"truth_conditions","nondistinctive","legs","generic",29,"pink",45,"True","feps"
"661",22,6995,"truth_conditions","nondistinctive","ears","generic",0,"orange",25,"True","kazzes"
"662",22,7284,"truth_conditions","nondistinctive","scales","generic",1,"yellow",5,"True","dorbs"
"663",22,6852,"truth_conditions","nondistinctive","fur","generic",2,"copper",5,"True","kweps"
"664",22,5144,"truth_conditions","nondistinctive","teeth","generic",3,"blue",45,"True","thups"
"665",22,4119,"truth_conditions","nondistinctive","feathers","generic",4,"red",15,"True","noobs"
"666",22,7586,"truth_conditions","dangerdistinct","spots","generic",5,"red",35,"True","sapers"
"667",22,3154,"truth_conditions","bare","stripes","generic",6,"gold",5,"True","daiths"
"668",22,4649,"truth_conditions","bare","shells","generic",7,"green",15,"True","moxes"
"669",22,4632,"truth_conditions","bare","ears","generic",8,"blue",35,"True","cheebas"
"670",22,2456,"truth_conditions","bare","spots","generic",9,"copper",45,"True","glippets"
"671",22,3448,"truth_conditions","dangerdistinct","feathers","generic",10,"gold",15,"True","plovs"
"672",22,3262,"truth_conditions","nondistinctive","tails","generic",11,"green",45,"True","trufts"
"673",22,3445,"truth_conditions","nondistinctive","shells","generic",12,"purple",35,"True","javs"
"674",22,2951,"truth_conditions","dangerdistinct","teeth","generic",13,"green",15,"True","zoovs"
"675",22,3385,"truth_conditions","dangerdistinct","tails","generic",14,"purple",25,"True","taifels"
"676",22,2787,"truth_conditions","bare","teeth","generic",15,"pink",45,"True","krivels"
"677",22,3037,"truth_conditions","dangerdistinct","fur","generic",16,"yellow",25,"True","ollers"
"678",22,2358,"truth_conditions","bare","scales","generic",17,"red",5,"True","blins"
"679",22,2180,"truth_conditions","bare","tails","generic",18,"orange",15,"True","zorbs"
"680",22,2073,"truth_conditions","bare","legs","generic",19,"yellow",25,"True","ludinos"
"681",22,2873,"truth_conditions","nondistinctive","stripes","generic",20,"silver",25,"True","frams"
"682",22,2175,"truth_conditions","bare","feathers","generic",21,"purple",35,"True","lorches"
"683",22,2696,"truth_conditions","dangerdistinct","stripes","generic",22,"copper",35,"True","mooks"
"684",22,2959,"truth_conditions","dangerdistinct","scales","generic",23,"blue",45,"True","reesles"
"685",22,2116,"truth_conditions","dangerdistinct","ears","generic",24,"pink",45,"True","elleps"
"686",22,2114,"truth_conditions","nondistinctive","legs","generic",25,"pink",35,"True","feps"
"687",22,2442,"truth_conditions","dangerdistinct","legs","generic",26,"silver",5,"True","ackles"
"688",22,2370,"truth_conditions","dangerdistinct","shells","generic",27,"orange",5,"True","luzaks"
"689",22,2175,"truth_conditions","bare","fur","generic",28,"silver",25,"True","morseths"
"690",22,3307,"truth_conditions","nondistinctive","spots","generic",29,"gold",15,"True","stups"
"691",23,6754,"truth_conditions","bare","ears","generic",0,"blue",35,"True","cheebas"
"692",23,7444,"truth_conditions","nondistinctive","spots","generic",1,"gold",15,"True","stups"
"693",23,4633,"truth_conditions","bare","fur","generic",2,"silver",25,"True","morseths"
"694",23,2650,"truth_conditions","bare","legs","generic",3,"yellow",15,"True","ludinos"
"695",23,3218,"truth_conditions","bare","tails","generic",4,"orange",15,"True","zorbs"
"696",23,5797,"truth_conditions","nondistinctive","ears","generic",5,"orange",5,"True","kazzes"
"697",23,5253,"truth_conditions","dangerdistinct","spots","generic",6,"red",25,"True","sapers"
"698",23,2946,"truth_conditions","dangerdistinct","teeth","generic",7,"green",45,"True","zoovs"
"699",23,2604,"truth_conditions","nondistinctive","legs","generic",8,"pink",45,"True","feps"
"700",23,3848,"truth_conditions","dangerdistinct","scales","generic",9,"blue",15,"True","reesles"
"701",23,3250,"truth_conditions","bare","teeth","generic",10,"pink",25,"True","krivels"
"702",23,3418,"truth_conditions","dangerdistinct","stripes","generic",11,"copper",15,"True","mooks"
"703",23,2081,"truth_conditions","bare","feathers","generic",12,"purple",5,"True","lorches"
"704",23,2318,"truth_conditions","nondistinctive","shells","generic",13,"purple",35,"True","javs"
"705",23,1602,"truth_conditions","nondistinctive","stripes","generic",14,"silver",15,"True","frams"
"706",23,2188,"truth_conditions","bare","spots","generic",15,"copper",35,"True","glippets"
"707",23,2411,"truth_conditions","bare","stripes","generic",16,"gold",5,"True","daiths"
"708",23,3283,"truth_conditions","nondistinctive","fur","generic",17,"copper",45,"True","kweps"
"709",23,3183,"truth_conditions","dangerdistinct","ears","generic",18,"pink",35,"True","elleps"
"710",23,1712,"truth_conditions","bare","shells","generic",19,"green",45,"True","moxes"
"711",23,2371,"truth_conditions","nondistinctive","teeth","generic",20,"blue",25,"True","thups"
"712",23,1584,"truth_conditions","nondistinctive","tails","generic",21,"green",25,"True","trufts"
"713",23,2113,"truth_conditions","dangerdistinct","fur","generic",22,"yellow",25,"True","ollers"
"714",23,1953,"truth_conditions","nondistinctive","scales","generic",23,"yellow",5,"True","dorbs"
"715",23,1917,"truth_conditions","dangerdistinct","shells","generic",24,"orange",5,"True","luzaks"
"716",23,1866,"truth_conditions","dangerdistinct","feathers","generic",25,"gold",5,"True","plovs"
"717",23,1698,"truth_conditions","nondistinctive","feathers","generic",26,"red",35,"True","noobs"
"718",23,2000,"truth_conditions","dangerdistinct","legs","generic",27,"silver",35,"True","ackles"
"719",23,2232,"truth_conditions","dangerdistinct","tails","generic",28,"purple",45,"True","taifels"
"720",23,3701,"truth_conditions","bare","scales","generic",29,"red",45,"True","blins"
"721",24,9520,"truth_conditions","nondistinctive","teeth","generic",0,"blue",15,"True","thups"
"722",24,7992,"truth_conditions","nondistinctive","tails","generic",1,"green",45,"True","trufts"
"723",24,6894,"truth_conditions","bare","spots","generic",2,"copper",5,"True","glippets"
"724",24,10770,"truth_conditions","dangerdistinct","shells","generic",3,"orange",35,"True","luzaks"
"725",24,4467,"truth_conditions","bare","stripes","generic",4,"gold",15,"True","daiths"
"726",24,5127,"truth_conditions","dangerdistinct","spots","generic",5,"red",25,"True","sapers"
"727",24,5026,"truth_conditions","bare","feathers","generic",6,"purple",25,"True","lorches"
"728",24,3364,"truth_conditions","bare","scales","generic",7,"red",15,"True","blins"
"729",24,3734,"truth_conditions","bare","ears","generic",8,"blue",35,"True","cheebas"
"730",24,7948,"truth_conditions","nondistinctive","shells","generic",9,"purple",35,"True","javs"
"731",24,2787,"truth_conditions","bare","tails","generic",10,"orange",25,"True","zorbs"
"732",24,7158,"truth_conditions","dangerdistinct","stripes","generic",11,"copper",45,"True","mooks"
"733",24,2457,"truth_conditions","bare","fur","generic",12,"silver",45,"True","morseths"
"734",24,5268,"truth_conditions","nondistinctive","stripes","generic",13,"silver",45,"True","frams"
"735",24,5408,"truth_conditions","dangerdistinct","scales","generic",14,"blue",15,"True","reesles"
"736",24,5394,"truth_conditions","dangerdistinct","teeth","generic",15,"green",35,"True","zoovs"
"737",24,3871,"truth_conditions","bare","teeth","generic",16,"pink",5,"True","krivels"
"738",24,3151,"truth_conditions","nondistinctive","ears","generic",17,"orange",25,"True","kazzes"
"739",24,4171,"truth_conditions","dangerdistinct","fur","generic",18,"yellow",25,"True","ollers"
"740",24,2458,"truth_conditions","bare","shells","generic",19,"green",45,"True","moxes"
"741",24,7279,"truth_conditions","dangerdistinct","feathers","generic",20,"gold",5,"True","plovs"
"742",24,4446,"truth_conditions","nondistinctive","legs","generic",21,"pink",25,"True","feps"
"743",24,2394,"truth_conditions","nondistinctive","fur","generic",22,"copper",15,"True","kweps"
"744",24,2081,"truth_conditions","dangerdistinct","ears","generic",23,"pink",45,"True","elleps"
"745",24,3259,"truth_conditions","dangerdistinct","tails","generic",24,"purple",15,"True","taifels"
"746",24,4917,"truth_conditions","nondistinctive","scales","generic",25,"yellow",5,"True","dorbs"
"747",24,4808,"truth_conditions","dangerdistinct","legs","generic",26,"silver",5,"True","ackles"
"748",24,2033,"truth_conditions","nondistinctive","spots","generic",27,"gold",5,"True","stups"
"749",24,2333,"truth_conditions","bare","legs","generic",28,"yellow",35,"True","ludinos"
"750",24,4878,"truth_conditions","nondistinctive","feathers","generic",29,"red",35,"True","noobs"
"751",25,114795,"truth_conditions","dangerdistinct","stripes","generic",0,"copper",35,"True","mooks"
"752",25,18080,"truth_conditions","bare","teeth","generic",1,"pink",35,"True","krivels"
"753",25,315994,"truth_conditions","dangerdistinct","ears","generic",2,"pink",45,"True","elleps"
"754",25,8508,"truth_conditions","nondistinctive","spots","generic",3,"gold",25,"True","stups"
"755",25,17385,"truth_conditions","dangerdistinct","shells","generic",4,"orange",15,"False","luzaks"
"756",25,5180,"truth_conditions","bare","stripes","generic",5,"gold",5,"False","daiths"
"757",25,12850,"truth_conditions","dangerdistinct","legs","generic",6,"silver",15,"False","ackles"
"758",25,13425,"truth_conditions","nondistinctive","legs","generic",7,"pink",5,"False","feps"
"759",25,7161,"truth_conditions","bare","legs","generic",8,"yellow",25,"True","ludinos"
"760",25,9330,"truth_conditions","dangerdistinct","feathers","generic",9,"gold",25,"True","plovs"
"761",25,10101,"truth_conditions","bare","scales","generic",10,"red",15,"False","blins"
"762",25,12981,"truth_conditions","dangerdistinct","fur","generic",11,"yellow",35,"True","ollers"
"763",25,10567,"truth_conditions","nondistinctive","ears","generic",12,"orange",35,"True","kazzes"
"764",25,3869,"truth_conditions","nondistinctive","fur","generic",13,"copper",15,"False","kweps"
"765",25,8301,"truth_conditions","bare","spots","generic",14,"copper",45,"True","glippets"
"766",25,8184,"truth_conditions","bare","fur","generic",15,"silver",25,"True","morseths"
"767",25,11229,"truth_conditions","nondistinctive","feathers","generic",16,"red",35,"True","noobs"
"768",25,7217,"truth_conditions","nondistinctive","scales","generic",17,"yellow",45,"True","dorbs"
"769",25,7134,"truth_conditions","dangerdistinct","spots","generic",18,"red",25,"True","sapers"
"770",25,8763,"truth_conditions","dangerdistinct","tails","generic",19,"purple",5,"False","taifels"
"771",25,8651,"truth_conditions","bare","tails","generic",20,"orange",5,"False","zorbs"
"772",25,8883,"truth_conditions","nondistinctive","shells","generic",21,"purple",45,"True","javs"
"773",25,9563,"truth_conditions","bare","shells","generic",22,"green",35,"True","moxes"
"774",25,6402,"truth_conditions","bare","feathers","generic",23,"purple",45,"True","lorches"
"775",25,7817,"truth_conditions","nondistinctive","stripes","generic",24,"silver",5,"False","frams"
"776",25,12182,"truth_conditions","dangerdistinct","scales","generic",25,"blue",45,"True","reesles"
"777",25,12387,"truth_conditions","nondistinctive","tails","generic",26,"green",15,"False","trufts"
"778",25,25161,"truth_conditions","dangerdistinct","teeth","generic",27,"green",5,"False","zoovs"
"779",25,7285,"truth_conditions","bare","ears","generic",28,"blue",15,"False","cheebas"
"780",25,8018,"truth_conditions","nondistinctive","teeth","generic",29,"blue",25,"True","thups"
"781",26,14074,"truth_conditions","bare","teeth","generic",0,"pink",35,"False","krivels"
"782",26,10934,"truth_conditions","dangerdistinct","legs","generic",1,"silver",35,"True","ackles"
"783",26,5814,"truth_conditions","bare","shells","generic",2,"green",35,"True","moxes"
"784",26,7920,"truth_conditions","dangerdistinct","fur","generic",3,"yellow",5,"False","ollers"
"785",26,5062,"truth_conditions","bare","tails","generic",4,"orange",25,"False","zorbs"
"786",26,8618,"truth_conditions","nondistinctive","legs","generic",5,"pink",15,"False","feps"
"787",26,7533,"truth_conditions","dangerdistinct","spots","generic",6,"red",25,"False","sapers"
"788",26,6516,"truth_conditions","nondistinctive","stripes","generic",7,"silver",5,"False","frams"
"789",26,7156,"truth_conditions","nondistinctive","scales","generic",8,"yellow",5,"False","dorbs"
"790",26,7243,"truth_conditions","nondistinctive","teeth","generic",9,"blue",45,"False","thups"
"791",26,8630,"truth_conditions","bare","feathers","generic",10,"purple",25,"False","lorches"
"792",26,6661,"truth_conditions","dangerdistinct","ears","generic",11,"pink",5,"False","elleps"
"793",26,5555,"truth_conditions","nondistinctive","fur","generic",12,"copper",35,"False","kweps"
"794",26,5962,"truth_conditions","nondistinctive","shells","generic",13,"purple",15,"False","javs"
"795",26,6243,"truth_conditions","dangerdistinct","shells","generic",14,"orange",15,"False","luzaks"
"796",26,7404,"truth_conditions","dangerdistinct","stripes","generic",15,"copper",35,"False","mooks"
"797",26,8842,"truth_conditions","dangerdistinct","feathers","generic",16,"gold",45,"True","plovs"
"798",26,7729,"truth_conditions","dangerdistinct","scales","generic",17,"blue",25,"True","reesles"
"799",26,7221,"truth_conditions","dangerdistinct","teeth","generic",18,"green",45,"True","zoovs"
"800",26,6951,"truth_conditions","nondistinctive","ears","generic",19,"orange",25,"False","kazzes"
"801",26,7370,"truth_conditions","dangerdistinct","tails","generic",20,"purple",15,"True","taifels"
"802",26,5096,"truth_conditions","nondistinctive","feathers","generic",21,"red",45,"False","noobs"
"803",26,6039,"truth_conditions","bare","ears","generic",22,"blue",15,"False","cheebas"
"804",26,4818,"truth_conditions","bare","stripes","generic",23,"gold",5,"False","daiths"
"805",26,7706,"truth_conditions","bare","legs","generic",24,"yellow",45,"True","ludinos"
"806",26,4880,"truth_conditions","bare","fur","generic",25,"silver",45,"True","morseths"
"807",26,6592,"truth_conditions","nondistinctive","spots","generic",26,"gold",35,"False","stups"
"808",26,4961,"truth_conditions","bare","scales","generic",27,"red",15,"False","blins"
"809",26,5457,"truth_conditions","nondistinctive","tails","generic",28,"green",25,"False","trufts"
"810",26,4037,"truth_conditions","bare","spots","generic",29,"copper",5,"False","glippets"
"811",27,27686,"truth_conditions","dangerdistinct","stripes","generic",0,"copper",5,"True","mooks"
"812",27,21703,"truth_conditions","dangerdistinct","tails","generic",1,"purple",35,"True","taifels"
"813",27,16931,"truth_conditions","bare","stripes","generic",2,"gold",15,"False","daiths"
"814",27,17013,"truth_conditions","dangerdistinct","feathers","generic",3,"gold",45,"True","plovs"
"815",27,12244,"truth_conditions","nondistinctive","scales","generic",4,"yellow",15,"True","dorbs"
"816",27,21913,"truth_conditions","dangerdistinct","shells","generic",5,"orange",25,"False","luzaks"
"817",27,15337,"truth_conditions","dangerdistinct","spots","generic",6,"red",15,"False","sapers"
"818",27,7154,"truth_conditions","dangerdistinct","fur","generic",7,"yellow",15,"False","ollers"
"819",27,7223,"truth_conditions","nondistinctive","spots","generic",8,"gold",5,"False","stups"
"820",27,8627,"truth_conditions","bare","tails","generic",9,"orange",35,"False","zorbs"
"821",27,7025,"truth_conditions","nondistinctive","teeth","generic",10,"blue",45,"True","thups"
"822",27,11766,"truth_conditions","nondistinctive","stripes","generic",11,"silver",45,"True","frams"
"823",27,7088,"truth_conditions","bare","scales","generic",12,"red",25,"False","blins"
"824",27,4625,"truth_conditions","bare","spots","generic",13,"copper",25,"False","glippets"
"825",27,4998,"truth_conditions","bare","legs","generic",14,"yellow",35,"False","ludinos"
"826",27,6819,"truth_conditions","bare","shells","generic",15,"green",45,"True","moxes"
"827",27,10374,"truth_conditions","dangerdistinct","scales","generic",16,"blue",25,"False","reesles"
"828",27,8397,"truth_conditions","nondistinctive","shells","generic",17,"purple",5,"False","javs"
"829",27,4893,"truth_conditions","bare","fur","generic",18,"silver",45,"True","morseths"
"830",27,4166,"truth_conditions","bare","ears","generic",19,"blue",5,"False","cheebas"
"831",27,10749,"truth_conditions","nondistinctive","ears","generic",20,"orange",35,"False","kazzes"
"832",27,5256,"truth_conditions","bare","feathers","generic",21,"purple",15,"False","lorches"
"833",27,10131,"truth_conditions","dangerdistinct","legs","generic",22,"silver",35,"False","ackles"
"834",27,10376,"truth_conditions","nondistinctive","fur","generic",23,"copper",35,"False","kweps"
"835",27,3471,"truth_conditions","bare","teeth","generic",24,"pink",5,"False","krivels"
"836",27,5473,"truth_conditions","dangerdistinct","teeth","generic",25,"green",45,"True","zoovs"
"837",27,5882,"truth_conditions","nondistinctive","feathers","generic",26,"red",15,"False","noobs"
"838",27,10967,"truth_conditions","nondistinctive","tails","generic",27,"green",25,"False","trufts"
"839",27,4130,"truth_conditions","dangerdistinct","ears","generic",28,"pink",5,"False","elleps"
"840",27,5491,"truth_conditions","nondistinctive","legs","generic",29,"pink",25,"False","feps"
"841",28,15800,"truth_conditions","nondistinctive","tails","generic",0,"green",15,"True","trufts"
"842",28,8021,"truth_conditions","dangerdistinct","feathers","generic",1,"gold",25,"True","plovs"
"843",28,8309,"truth_conditions","dangerdistinct","legs","generic",2,"silver",5,"True","ackles"
"844",28,7943,"truth_conditions","dangerdistinct","shells","generic",3,"orange",25,"True","luzaks"
"845",28,4814,"truth_conditions","bare","scales","generic",4,"red",25,"True","blins"
"846",28,16588,"truth_conditions","nondistinctive","legs","generic",5,"pink",25,"True","feps"
"847",28,6411,"truth_conditions","dangerdistinct","teeth","generic",6,"green",45,"True","zoovs"
"848",28,8396,"truth_conditions","dangerdistinct","tails","generic",7,"purple",45,"True","taifels"
"849",28,6582,"truth_conditions","bare","fur","generic",8,"silver",35,"True","morseths"
"850",28,8545,"truth_conditions","nondistinctive","spots","generic",9,"gold",45,"True","stups"
"851",28,2907,"truth_conditions","bare","shells","generic",10,"green",25,"True","moxes"
"852",28,6910,"truth_conditions","bare","tails","generic",11,"orange",45,"True","zorbs"
"853",28,2519,"truth_conditions","bare","teeth","generic",12,"pink",15,"True","krivels"
"854",28,2473,"truth_conditions","bare","stripes","generic",13,"gold",35,"True","daiths"
"855",28,77703,"truth_conditions","dangerdistinct","ears","generic",14,"pink",15,"True","elleps"
"856",28,8829,"truth_conditions","nondistinctive","stripes","generic",15,"silver",35,"True","frams"
"857",28,7323,"truth_conditions","dangerdistinct","stripes","generic",16,"copper",15,"True","mooks"
"858",28,3246,"truth_conditions","nondistinctive","feathers","generic",17,"red",15,"True","noobs"
"859",28,4302,"truth_conditions","bare","feathers","generic",18,"purple",45,"True","lorches"
"860",28,2727,"truth_conditions","bare","ears","generic",19,"blue",15,"True","cheebas"
"861",28,6110,"truth_conditions","nondistinctive","teeth","generic",20,"blue",5,"True","thups"
"862",28,4377,"truth_conditions","bare","spots","generic",21,"copper",5,"True","glippets"
"863",28,2898,"truth_conditions","bare","legs","generic",22,"yellow",5,"True","ludinos"
"864",28,4583,"truth_conditions","dangerdistinct","fur","generic",23,"yellow",5,"True","ollers"
"865",28,14533,"truth_conditions","dangerdistinct","spots","generic",24,"red",35,"True","sapers"
"866",28,3524,"truth_conditions","nondistinctive","fur","generic",25,"copper",45,"True","kweps"
"867",28,13377,"truth_conditions","nondistinctive","scales","generic",26,"yellow",35,"True","dorbs"
"868",28,9747,"truth_conditions","dangerdistinct","scales","generic",27,"blue",35,"True","reesles"
"869",28,2071,"truth_conditions","nondistinctive","ears","generic",28,"orange",25,"True","kazzes"
"870",28,8026,"truth_conditions","nondistinctive","shells","generic",29,"purple",5,"True","javs"
"871",29,12839,"truth_conditions","bare","feathers","generic",0,"purple",25,"True","lorches"
"872",29,11230,"truth_conditions","dangerdistinct","shells","generic",1,"orange",5,"True","luzaks"
"873",29,11443,"truth_conditions","nondistinctive","scales","generic",2,"yellow",45,"True","dorbs"
"874",29,9958,"truth_conditions","bare","tails","generic",3,"orange",35,"True","zorbs"
"875",29,14499,"truth_conditions","dangerdistinct","ears","generic",4,"pink",15,"True","elleps"
"876",29,9070,"truth_conditions","nondistinctive","stripes","generic",5,"silver",5,"True","frams"
"877",29,17650,"truth_conditions","nondistinctive","teeth","generic",6,"blue",15,"True","thups"
"878",29,5382,"truth_conditions","bare","shells","generic",7,"green",45,"True","moxes"
"879",29,10307,"truth_conditions","nondistinctive","fur","generic",8,"copper",45,"True","kweps"
"880",29,7685,"truth_conditions","bare","spots","generic",9,"copper",15,"True","glippets"
"881",29,10921,"truth_conditions","nondistinctive","spots","generic",10,"gold",35,"True","stups"
"882",29,7023,"truth_conditions","dangerdistinct","stripes","generic",11,"copper",25,"True","mooks"
"883",29,8090,"truth_conditions","dangerdistinct","fur","generic",12,"yellow",45,"True","ollers"
"884",29,8922,"truth_conditions","dangerdistinct","feathers","generic",13,"gold",35,"True","plovs"
"885",29,3993,"truth_conditions","bare","teeth","generic",14,"pink",45,"True","krivels"
"886",29,2866,"truth_conditions","bare","scales","generic",15,"red",5,"True","blins"
"887",29,7251,"truth_conditions","nondistinctive","legs","generic",16,"pink",35,"True","feps"
"888",29,6342,"truth_conditions","nondistinctive","tails","generic",17,"green",25,"True","trufts"
"889",29,4906,"truth_conditions","nondistinctive","ears","generic",18,"orange",15,"True","kazzes"
"890",29,4306,"truth_conditions","bare","legs","generic",19,"yellow",5,"True","ludinos"
"891",29,11671,"truth_conditions","dangerdistinct","spots","generic",20,"red",5,"True","sapers"
"892",29,4530,"truth_conditions","bare","fur","generic",21,"silver",15,"True","morseths"
"893",29,8041,"truth_conditions","nondistinctive","shells","generic",22,"purple",5,"True","javs"
"894",29,3601,"truth_conditions","dangerdistinct","teeth","generic",23,"green",45,"True","zoovs"
"895",29,8506,"truth_conditions","dangerdistinct","tails","generic",24,"purple",35,"True","taifels"
"896",29,5555,"truth_conditions","dangerdistinct","legs","generic",25,"silver",15,"True","ackles"
"897",29,5086,"truth_conditions","bare","ears","generic",26,"blue",25,"True","cheebas"
"898",29,3446,"truth_conditions","bare","stripes","generic",27,"gold",35,"True","daiths"
"899",29,10624,"truth_conditions","nondistinctive","feathers","generic",28,"red",25,"True","noobs"
"900",29,10852,"truth_conditions","dangerdistinct","scales","generic",29,"blue",25,"True","reesles"
"901",30,22202,"truth_conditions","dangerdistinct","tails","generic",0,"purple",45,"True","taifels"
"902",30,30101,"truth_conditions","nondistinctive","feathers","generic",1,"red",25,"False","noobs"
"903",30,29074,"truth_conditions","nondistinctive","teeth","generic",2,"blue",35,"False","thups"
"904",30,22618,"truth_conditions","nondistinctive","ears","generic",3,"orange",15,"False","kazzes"
"905",30,19307,"truth_conditions","nondistinctive","scales","generic",4,"yellow",45,"False","dorbs"
"906",30,9679,"truth_conditions","bare","tails","generic",5,"orange",5,"False","zorbs"
"907",30,8720,"truth_conditions","bare","shells","generic",6,"green",25,"False","moxes"
"908",30,12426,"truth_conditions","bare","feathers","generic",7,"purple",35,"False","lorches"
"909",30,14805,"truth_conditions","bare","scales","generic",8,"red",5,"False","blins"
"910",30,20156,"truth_conditions","dangerdistinct","spots","generic",9,"red",5,"True","sapers"
"911",30,24065,"truth_conditions","dangerdistinct","ears","generic",10,"pink",45,"True","elleps"
"912",30,14657,"truth_conditions","dangerdistinct","scales","generic",11,"blue",25,"True","reesles"
"913",30,10488,"truth_conditions","bare","fur","generic",12,"silver",15,"False","morseths"
"914",30,17649,"truth_conditions","nondistinctive","stripes","generic",13,"silver",25,"False","frams"
"915",30,19462,"truth_conditions","nondistinctive","fur","generic",14,"copper",5,"False","kweps"
"916",30,13301,"truth_conditions","bare","teeth","generic",15,"pink",35,"False","krivels"
"917",30,17310,"truth_conditions","dangerdistinct","teeth","generic",16,"green",35,"True","zoovs"
"918",30,9291,"truth_conditions","nondistinctive","tails","generic",17,"green",5,"False","trufts"
"919",30,21122,"truth_conditions","dangerdistinct","feathers","generic",18,"gold",5,"True","plovs"
"920",30,7584,"truth_conditions","bare","legs","generic",19,"yellow",15,"False","ludinos"
"921",30,11246,"truth_conditions","dangerdistinct","fur","generic",20,"yellow",15,"True","ollers"
"922",30,12830,"truth_conditions","nondistinctive","legs","generic",21,"pink",35,"False","feps"
"923",30,13172,"truth_conditions","dangerdistinct","stripes","generic",22,"copper",25,"True","mooks"
"924",30,9374,"truth_conditions","bare","ears","generic",23,"blue",25,"False","cheebas"
"925",30,11844,"truth_conditions","bare","spots","generic",24,"copper",45,"False","glippets"
"926",30,21435,"truth_conditions","nondistinctive","spots","generic",25,"gold",15,"False","stups"
"927",30,24784,"truth_conditions","dangerdistinct","shells","generic",26,"orange",35,"True","luzaks"
"928",30,15304,"truth_conditions","dangerdistinct","legs","generic",27,"silver",15,"True","ackles"
"929",30,22140,"truth_conditions","nondistinctive","shells","generic",28,"purple",45,"False","javs"
"930",30,9582,"truth_conditions","bare","stripes","generic",29,"gold",45,"False","daiths"
"931",31,13513,"truth_conditions","dangerdistinct","scales","generic",0,"blue",35,"True","reesles"
"932",31,3768,"truth_conditions","bare","shells","generic",1,"green",15,"True","moxes"
"933",31,11263,"truth_conditions","nondistinctive","spots","generic",2,"gold",15,"True","stups"
"934",31,4718,"truth_conditions","dangerdistinct","stripes","generic",3,"copper",35,"True","mooks"
"935",31,9728,"truth_conditions","dangerdistinct","spots","generic",4,"red",15,"True","sapers"
"936",31,4409,"truth_conditions","nondistinctive","stripes","generic",5,"silver",45,"True","frams"
"937",31,2361,"truth_conditions","bare","fur","generic",6,"silver",45,"True","morseths"
"938",31,3131,"truth_conditions","dangerdistinct","feathers","generic",7,"gold",15,"True","plovs"
"939",31,5140,"truth_conditions","nondistinctive","feathers","generic",8,"red",45,"True","noobs"
"940",31,4746,"truth_conditions","nondistinctive","tails","generic",9,"green",5,"True","trufts"
"941",31,2494,"truth_conditions","bare","stripes","generic",10,"gold",15,"True","daiths"
"942",31,10975,"truth_conditions","dangerdistinct","fur","generic",11,"yellow",5,"True","ollers"
"943",31,5689,"truth_conditions","nondistinctive","legs","generic",12,"pink",25,"True","feps"
"944",31,3427,"truth_conditions","dangerdistinct","shells","generic",13,"orange",25,"True","luzaks"
"945",31,5809,"truth_conditions","nondistinctive","teeth","generic",14,"blue",35,"True","thups"
"946",31,2905,"truth_conditions","bare","ears","generic",15,"blue",25,"True","cheebas"
"947",31,13004,"truth_conditions","bare","teeth","generic",16,"pink",35,"True","krivels"
"948",31,2672,"truth_conditions","bare","feathers","generic",17,"purple",5,"True","lorches"
"949",31,5305,"truth_conditions","nondistinctive","shells","generic",18,"purple",25,"True","javs"
"950",31,2886,"truth_conditions","bare","legs","generic",19,"yellow",45,"True","ludinos"
"951",31,6871,"truth_conditions","nondistinctive","fur","generic",20,"copper",35,"True","kweps"
"952",31,6214,"truth_conditions","bare","scales","generic",21,"red",35,"True","blins"
"953",31,7358,"truth_conditions","nondistinctive","scales","generic",22,"yellow",5,"True","dorbs"
"954",31,4534,"truth_conditions","nondistinctive","ears","generic",23,"orange",15,"True","kazzes"
"955",31,3588,"truth_conditions","dangerdistinct","legs","generic",24,"silver",45,"True","ackles"
"956",31,2625,"truth_conditions","bare","spots","generic",25,"copper",5,"True","glippets"
"957",31,5850,"truth_conditions","dangerdistinct","tails","generic",26,"purple",45,"True","taifels"
"958",31,7119,"truth_conditions","dangerdistinct","ears","generic",27,"pink",25,"True","elleps"
"959",31,5261,"truth_conditions","dangerdistinct","teeth","generic",28,"green",5,"True","zoovs"
"960",31,2342,"truth_conditions","bare","tails","generic",29,"orange",25,"True","zorbs"
"961",32,36095,"truth_conditions","dangerdistinct","legs","generic",0,"silver",25,"True","ackles"
"962",32,17135,"truth_conditions","dangerdistinct","ears","generic",1,"pink",35,"True","elleps"
"963",32,36167,"truth_conditions","dangerdistinct","fur","generic",2,"yellow",15,"True","ollers"
"964",32,24734,"truth_conditions","nondistinctive","spots","generic",3,"gold",5,"False","stups"
"965",32,20597,"truth_conditions","nondistinctive","feathers","generic",4,"red",35,"True","noobs"
"966",32,13675,"truth_conditions","nondistinctive","legs","generic",5,"pink",25,"True","feps"
"967",32,7053,"truth_conditions","bare","stripes","generic",6,"gold",5,"False","daiths"
"968",32,8980,"truth_conditions","bare","tails","generic",7,"orange",25,"False","zorbs"
"969",32,15070,"truth_conditions","nondistinctive","tails","generic",8,"green",15,"False","trufts"
"970",32,11333,"truth_conditions","bare","scales","generic",9,"red",5,"False","blins"
"971",32,4849,"truth_conditions","bare","shells","generic",10,"green",35,"False","moxes"
"972",32,7143,"truth_conditions","bare","spots","generic",11,"copper",45,"False","glippets"
"973",32,19966,"truth_conditions","nondistinctive","ears","generic",12,"orange",35,"False","kazzes"
"974",32,5480,"truth_conditions","bare","ears","generic",13,"blue",25,"False","cheebas"
"975",32,16233,"truth_conditions","dangerdistinct","stripes","generic",14,"copper",45,"False","mooks"
"976",32,39491,"truth_conditions","dangerdistinct","teeth","generic",15,"green",25,"False","zoovs"
"977",32,15230,"truth_conditions","nondistinctive","fur","generic",16,"copper",15,"False","kweps"
"978",32,6978,"truth_conditions","nondistinctive","stripes","generic",17,"silver",5,"False","frams"
"979",32,30155,"truth_conditions","dangerdistinct","scales","generic",18,"blue",15,"False","reesles"
"980",32,12558,"truth_conditions","nondistinctive","shells","generic",19,"purple",45,"False","javs"
"981",32,13106,"truth_conditions","bare","fur","generic",20,"silver",35,"False","morseths"
"982",32,23397,"truth_conditions","bare","legs","generic",21,"yellow",45,"False","ludinos"
"983",32,17059,"truth_conditions","dangerdistinct","tails","generic",22,"purple",35,"False","taifels"
"984",32,6071,"truth_conditions","bare","feathers","generic",23,"purple",15,"False","lorches"
"985",32,9320,"truth_conditions","nondistinctive","teeth","generic",24,"blue",25,"False","thups"
"986",32,14736,"truth_conditions","bare","teeth","generic",25,"pink",15,"False","krivels"
"987",32,31620,"truth_conditions","nondistinctive","scales","generic",26,"yellow",45,"False","dorbs"
"988",32,9427,"truth_conditions","dangerdistinct","shells","generic",27,"orange",45,"False","luzaks"
"989",32,16984,"truth_conditions","dangerdistinct","spots","generic",28,"red",5,"False","sapers"
"990",32,32869,"truth_conditions","dangerdistinct","feathers","generic",29,"gold",5,"False","plovs"
"991",33,18358,"truth_conditions","dangerdistinct","ears","generic",0,"pink",35,"True","elleps"
"992",33,9517,"truth_conditions","dangerdistinct","teeth","generic",1,"green",15,"True","zoovs"
"993",33,6997,"truth_conditions","bare","legs","generic",2,"yellow",35,"True","ludinos"
"994",33,20098,"truth_conditions","nondistinctive","feathers","generic",3,"red",5,"True","noobs"
"995",33,10508,"truth_conditions","dangerdistinct","tails","generic",4,"purple",25,"True","taifels"
"996",33,6436,"truth_conditions","bare","feathers","generic",5,"purple",35,"True","lorches"
"997",33,10342,"truth_conditions","dangerdistinct","feathers","generic",6,"gold",35,"True","plovs"
"998",33,7699,"truth_conditions","nondistinctive","stripes","generic",7,"silver",45,"True","frams"
"999",33,9907,"truth_conditions","nondistinctive","spots","generic",8,"gold",35,"True","stups"
"1000",33,9781,"truth_conditions","dangerdistinct","scales","generic",9,"blue",45,"True","reesles"
"1001",33,4268,"truth_conditions","bare","fur","generic",10,"silver",15,"True","morseths"
"1002",33,10744,"truth_conditions","dangerdistinct","fur","generic",11,"yellow",25,"True","ollers"
"1003",33,3682,"truth_conditions","bare","teeth","generic",12,"pink",5,"True","krivels"
"1004",33,7953,"truth_conditions","nondistinctive","teeth","generic",13,"blue",35,"True","thups"
"1005",33,4183,"truth_conditions","bare","tails","generic",14,"orange",15,"True","zorbs"
"1006",33,5790,"truth_conditions","dangerdistinct","legs","generic",15,"silver",15,"True","ackles"
"1007",33,6033,"truth_conditions","nondistinctive","tails","generic",16,"green",15,"True","trufts"
"1008",33,5719,"truth_conditions","nondistinctive","scales","generic",17,"yellow",45,"True","dorbs"
"1009",33,9103,"truth_conditions","nondistinctive","fur","generic",18,"copper",5,"True","kweps"
"1010",33,3735,"truth_conditions","bare","ears","generic",19,"blue",25,"True","cheebas"
"1011",33,5925,"truth_conditions","nondistinctive","ears","generic",20,"orange",25,"True","kazzes"
"1012",33,6381,"truth_conditions","dangerdistinct","stripes","generic",21,"copper",45,"True","mooks"
"1013",33,3649,"truth_conditions","bare","stripes","generic",22,"gold",5,"True","daiths"
"1014",33,2793,"truth_conditions","bare","spots","generic",23,"copper",45,"True","glippets"
"1015",33,7818,"truth_conditions","nondistinctive","shells","generic",24,"purple",25,"True","javs"
"1016",33,5222,"truth_conditions","nondistinctive","legs","generic",25,"pink",15,"True","feps"
"1017",33,3904,"truth_conditions","dangerdistinct","spots","generic",26,"red",5,"True","sapers"
"1018",33,3523,"truth_conditions","bare","shells","generic",27,"green",45,"True","moxes"
"1019",33,6488,"truth_conditions","dangerdistinct","shells","generic",28,"orange",5,"True","luzaks"
"1020",33,3100,"truth_conditions","bare","scales","generic",29,"red",25,"True","blins"
"1021",34,14626,"truth_conditions","dangerdistinct","spots","generic",0,"red",35,"True","sapers"
"1022",34,12107,"truth_conditions","bare","legs","generic",1,"yellow",5,"False","ludinos"
"1023",34,9248,"truth_conditions","nondistinctive","ears","generic",2,"orange",35,"True","kazzes"
"1024",34,12433,"truth_conditions","nondistinctive","stripes","generic",3,"silver",25,"True","frams"
"1025",34,10166,"truth_conditions","dangerdistinct","feathers","generic",4,"gold",45,"True","plovs"
"1026",34,9328,"truth_conditions","dangerdistinct","ears","generic",5,"pink",25,"True","elleps"
"1027",34,10599,"truth_conditions","dangerdistinct","tails","generic",6,"purple",45,"True","taifels"
"1028",34,5904,"truth_conditions","nondistinctive","legs","generic",7,"pink",45,"True","feps"
"1029",34,3825,"truth_conditions","bare","feathers","generic",8,"purple",5,"False","lorches"
"1030",34,15174,"truth_conditions","dangerdistinct","stripes","generic",9,"copper",5,"True","mooks"
"1031",34,8759,"truth_conditions","nondistinctive","fur","generic",10,"copper",5,"True","kweps"
"1032",34,12888,"truth_conditions","nondistinctive","scales","generic",11,"yellow",25,"True","dorbs"
"1033",34,5696,"truth_conditions","bare","spots","generic",12,"copper",25,"True","glippets"
"1034",34,12857,"truth_conditions","nondistinctive","tails","generic",13,"green",15,"True","trufts"
"1035",34,6292,"truth_conditions","nondistinctive","teeth","generic",14,"blue",45,"True","thups"
"1036",34,2864,"truth_conditions","bare","scales","generic",15,"red",45,"True","blins"
"1037",34,4119,"truth_conditions","bare","tails","generic",16,"orange",35,"True","zorbs"
"1038",34,7800,"truth_conditions","dangerdistinct","shells","generic",17,"orange",25,"True","luzaks"
"1039",34,6743,"truth_conditions","nondistinctive","shells","generic",18,"purple",15,"True","javs"
"1040",34,2592,"truth_conditions","bare","teeth","generic",19,"pink",35,"True","krivels"
"1041",34,3151,"truth_conditions","bare","fur","generic",20,"silver",15,"True","morseths"
"1042",34,5680,"truth_conditions","dangerdistinct","teeth","generic",21,"green",15,"True","zoovs"
"1043",34,8384,"truth_conditions","dangerdistinct","fur","generic",22,"yellow",35,"True","ollers"
"1044",34,9127,"truth_conditions","bare","stripes","generic",23,"gold",15,"True","daiths"
"1045",34,4567,"truth_conditions","bare","shells","generic",24,"green",25,"True","moxes"
"1046",34,5089,"truth_conditions","nondistinctive","feathers","generic",25,"red",5,"True","noobs"
"1047",34,5511,"truth_conditions","nondistinctive","spots","generic",26,"gold",35,"True","stups"
"1048",34,5976,"truth_conditions","dangerdistinct","legs","generic",27,"silver",5,"True","ackles"
"1049",34,2855,"truth_conditions","bare","ears","generic",28,"blue",45,"True","cheebas"
"1050",34,6287,"truth_conditions","dangerdistinct","scales","generic",29,"blue",15,"True","reesles"
"1051",35,18025,"truth_conditions","nondistinctive","ears","generic",0,"orange",5,"False","kazzes"
"1052",35,3120,"truth_conditions","bare","fur","generic",1,"silver",5,"False","morseths"
"1053",35,3452,"truth_conditions","bare","spots","generic",2,"copper",5,"False","glippets"
"1054",35,10238,"truth_conditions","dangerdistinct","legs","generic",3,"silver",45,"True","ackles"
"1055",35,8644,"truth_conditions","nondistinctive","stripes","generic",4,"silver",15,"False","frams"
"1056",35,6429,"truth_conditions","dangerdistinct","tails","generic",5,"purple",15,"False","taifels"
"1057",35,3194,"truth_conditions","bare","scales","generic",6,"red",15,"False","blins"
"1058",35,2674,"truth_conditions","bare","tails","generic",7,"orange",45,"True","zorbs"
