workerid	rt	trial_type	stim_type	stim_part	stim_determiner	trialNum	stim_color	stim_prevalence	response	stim_category
0	26522	truth_conditions	nondistinctive	tails	generic	0	green	70	True	trufts
0	10155	truth_conditions	bare	stripes	generic	1	gold	30	True	daiths
0	6229	truth_conditions	nondistinctive	fur	generic	2	copper	30	True	kweps
0	3845	truth_conditions	bare	shells	generic	3	green	70	True	moxes
0	3656	truth_conditions	danger/distinct	spots	generic	4	red	10	False	sapers
0	3850	truth_conditions	nondistinctive	shells	generic	5	purple	50	True	javs
0	6042	truth_conditions	danger/distinct	stripes	generic	6	copper	70	True	mooks
0	2767	truth_conditions	bare	feathers	generic	7	purple	70	True	lorches
0	6134	truth_conditions	bare	fur	generic	8	silver	10	False	morseths
0	3207	truth_conditions	danger/distinct	teeth	generic	9	green	90	True	zoovs
0	3282	truth_conditions	danger/distinct	fur	generic	10	yellow	90	True	ollers
0	2476	truth_conditions	bare	spots	generic	11	copper	50	True	glippets
0	3051	truth_conditions	danger/distinct	legs	generic	12	silver	30	True	ackles
0	3348	truth_conditions	nondistinctive	feathers	generic	13	red	90	True	noobs
0	2764	truth_conditions	bare	teeth	generic	14	pink	90	True	krivels
0	2728	truth_conditions	bare	scales	generic	15	red	10	False	blins
0	2945	truth_conditions	nondistinctive	teeth	generic	16	blue	90	True	thups
0	2472	truth_conditions	danger/distinct	ears	generic	17	pink	70	True	elleps
0	1876	truth_conditions	nondistinctive	ears	generic	18	orange	70	True	kazzes
0	2357	truth_conditions	danger/distinct	scales	generic	19	blue	10	False	reesles
0	2683	truth_conditions	nondistinctive	spots	generic	20	gold	30	True	stups
0	2394	truth_conditions	danger/distinct	feathers	generic	21	gold	50	True	plovs
0	3327	truth_conditions	bare	ears	generic	22	blue	90	True	cheebas
0	2322	truth_conditions	danger/distinct	tails	generic	23	purple	30	True	taifels
0	2474	truth_conditions	bare	tails	generic	24	orange	50	True	zorbs
0	2592	truth_conditions	nondistinctive	stripes	generic	25	silver	50	True	frams
0	1908	truth_conditions	danger/distinct	shells	generic	26	orange	50	True	luzaks
0	5049	truth_conditions	nondistinctive	scales	generic	27	yellow	10	False	dorbs
0	2772	truth_conditions	bare	legs	generic	28	yellow	30	False	ludinos
0	2954	truth_conditions	nondistinctive	legs	generic	29	pink	10	False	feps
1	101403	truth_conditions	danger/distinct	ears	generic	0	pink	90	True	elleps
1	11092	truth_conditions	danger/distinct	teeth	generic	1	green	70	True	zoovs
1	4102	truth_conditions	bare	teeth	generic	2	pink	30	True	krivels
1	5680	truth_conditions	danger/distinct	legs	generic	3	silver	70	True	ackles
1	4400	truth_conditions	nondistinctive	legs	generic	4	pink	10	False	feps
1	3896	truth_conditions	nondistinctive	tails	generic	5	green	70	True	trufts
1	2769	truth_conditions	bare	fur	generic	6	silver	30	False	morseths
1	2440	truth_conditions	bare	feathers	generic	7	purple	90	True	lorches
1	2127	truth_conditions	nondistinctive	spots	generic	8	gold	90	True	stups
1	19281	truth_conditions	danger/distinct	shells	generic	9	orange	30	False	luzaks
1	1648	truth_conditions	nondistinctive	ears	generic	10	orange	50	True	kazzes
1	1942	truth_conditions	nondistinctive	stripes	generic	11	silver	30	False	frams
1	1727	truth_conditions	danger/distinct	tails	generic	12	purple	30	False	taifels
1	1425	truth_conditions	nondistinctive	fur	generic	13	copper	90	True	kweps
1	2175	truth_conditions	danger/distinct	spots	generic	14	red	90	True	sapers
1	15336	truth_conditions	danger/distinct	fur	generic	15	yellow	50	True	ollers
1	2511	truth_conditions	bare	stripes	generic	16	gold	70	True	daiths
1	2143	truth_conditions	bare	legs	generic	17	yellow	10	False	ludinos
1	1617	truth_conditions	bare	scales	generic	18	red	10	False	blins
1	1904	truth_conditions	danger/distinct	feathers	generic	19	gold	10	False	plovs
1	2861	truth_conditions	danger/distinct	scales	generic	20	blue	10	False	reesles
1	1920	truth_conditions	bare	spots	generic	21	copper	50	True	glippets
1	1921	truth_conditions	nondistinctive	shells	generic	22	purple	50	True	javs
1	1783	truth_conditions	bare	shells	generic	23	green	70	True	moxes
1	2151	truth_conditions	nondistinctive	teeth	generic	24	blue	10	False	thups
1	1944	truth_conditions	danger/distinct	stripes	generic	25	copper	50	True	mooks
1	31937	truth_conditions	nondistinctive	feathers	generic	26	red	70	True	noobs
1	7071	truth_conditions	nondistinctive	scales	generic	27	yellow	30	False	dorbs
1	1575	truth_conditions	bare	tails	generic	28	orange	50	True	zorbs
1	1527	truth_conditions	bare	ears	generic	29	blue	90	True	cheebas
2	16801	truth_conditions	danger/distinct	feathers	generic	0	gold	50	True	plovs
2	11472	truth_conditions	nondistinctive	feathers	generic	1	red	30	True	noobs
2	8318	truth_conditions	bare	legs	generic	2	yellow	90	True	ludinos
2	14532	truth_conditions	danger/distinct	spots	generic	3	red	30	True	sapers
2	15863	truth_conditions	nondistinctive	spots	generic	4	gold	50	True	stups
2	5994	truth_conditions	bare	tails	generic	5	orange	50	True	zorbs
2	13037	truth_conditions	nondistinctive	scales	generic	6	yellow	10	True	dorbs
2	16618	truth_conditions	danger/distinct	shells	generic	7	orange	30	True	luzaks
2	10973	truth_conditions	nondistinctive	stripes	generic	8	silver	50	True	frams
2	10277	truth_conditions	bare	feathers	generic	9	purple	70	True	lorches
2	12618	truth_conditions	danger/distinct	tails	generic	10	purple	10	False	taifels
2	8835	truth_conditions	danger/distinct	fur	generic	11	yellow	90	True	ollers
2	8302	truth_conditions	bare	ears	generic	12	blue	30	False	cheebas
2	3674	truth_conditions	bare	scales	generic	13	red	70	True	blins
2	9208	truth_conditions	danger/distinct	ears	generic	14	pink	70	True	elleps
2	5251	truth_conditions	danger/distinct	stripes	generic	15	copper	50	True	mooks
2	9463	truth_conditions	nondistinctive	tails	generic	16	green	90	True	trufts
2	3232	truth_conditions	nondistinctive	shells	generic	17	purple	70	True	javs
2	3867	truth_conditions	bare	fur	generic	18	silver	90	True	morseths
2	8146	truth_conditions	danger/distinct	scales	generic	19	blue	70	True	reesles
2	4742	truth_conditions	danger/distinct	legs	generic	20	silver	90	True	ackles
2	6298	truth_conditions	bare	shells	generic	21	green	10	False	moxes
2	3805	truth_conditions	danger/distinct	teeth	generic	22	green	10	False	zoovs
2	4131	truth_conditions	bare	stripes	generic	23	gold	30	False	daiths
2	3259	truth_conditions	bare	teeth	generic	24	pink	10	False	krivels
2	6255	truth_conditions	nondistinctive	teeth	generic	25	blue	70	True	thups
2	2629	truth_conditions	bare	spots	generic	26	copper	50	True	glippets
2	3813	truth_conditions	nondistinctive	legs	generic	27	pink	90	True	feps
2	3110	truth_conditions	nondistinctive	fur	generic	28	copper	30	False	kweps
2	2653	truth_conditions	nondistinctive	ears	generic	29	orange	10	False	kazzes
3	10702	truth_conditions	nondistinctive	shells	generic	0	purple	70	True	javs
3	4014	truth_conditions	danger/distinct	spots	generic	1	red	30	True	sapers
3	2425	truth_conditions	bare	ears	generic	2	blue	70	True	cheebas
3	2274	truth_conditions	nondistinctive	legs	generic	3	pink	90	True	feps
3	1336	truth_conditions	nondistinctive	teeth	generic	4	blue	50	True	thups
3	1309	truth_conditions	danger/distinct	ears	generic	5	pink	70	True	elleps
3	1189	truth_conditions	bare	fur	generic	6	silver	50	True	morseths
3	2306	truth_conditions	danger/distinct	legs	generic	7	silver	10	True	ackles
3	1184	truth_conditions	bare	teeth	generic	8	pink	50	True	krivels
3	1259	truth_conditions	nondistinctive	scales	generic	9	yellow	70	True	dorbs
3	1714	truth_conditions	danger/distinct	teeth	generic	10	green	30	True	zoovs
3	1306	truth_conditions	danger/distinct	feathers	generic	11	gold	50	True	plovs
3	1262	truth_conditions	nondistinctive	tails	generic	12	green	30	True	trufts
3	2038	truth_conditions	danger/distinct	tails	generic	13	purple	90	True	taifels
3	3024	truth_conditions	bare	feathers	generic	14	purple	30	True	lorches
3	1468	truth_conditions	nondistinctive	spots	generic	15	gold	10	True	stups
3	1394	truth_conditions	bare	stripes	generic	16	gold	10	True	daiths
3	4650	truth_conditions	nondistinctive	feathers	generic	17	red	90	True	noobs
3	2163	truth_conditions	bare	shells	generic	18	green	90	True	moxes
3	1124	truth_conditions	bare	tails	generic	19	orange	70	True	zorbs
3	1817	truth_conditions	nondistinctive	stripes	generic	20	silver	30	True	frams
3	1210	truth_conditions	nondistinctive	fur	generic	21	copper	50	True	kweps
3	1776	truth_conditions	danger/distinct	shells	generic	22	orange	70	True	luzaks
3	1546	truth_conditions	bare	scales	generic	23	red	30	True	blins
3	1163	truth_conditions	danger/distinct	scales	generic	24	blue	10	True	reesles
3	1375	truth_conditions	bare	legs	generic	25	yellow	10	True	ludinos
3	1331	truth_conditions	danger/distinct	fur	generic	26	yellow	90	True	ollers
3	1270	truth_conditions	danger/distinct	stripes	generic	27	copper	50	True	mooks
3	1227	truth_conditions	nondistinctive	ears	generic	28	orange	10	True	kazzes
3	1321	truth_conditions	bare	spots	generic	29	copper	90	True	glippets
4	19506	truth_conditions	nondistinctive	spots	generic	0	gold	70	True	stups
4	7173	truth_conditions	bare	spots	generic	1	copper	30	False	glippets
4	14174	truth_conditions	danger/distinct	ears	generic	2	pink	70	True	elleps
4	14568	truth_conditions	danger/distinct	teeth	generic	3	green	10	True	zoovs
4	12034	truth_conditions	danger/distinct	stripes	generic	4	copper	30	True	mooks
4	15405	truth_conditions	nondistinctive	stripes	generic	5	silver	10	False	frams
4	4522	truth_conditions	bare	teeth	generic	6	pink	90	True	krivels
4	5371	truth_conditions	bare	legs	generic	7	yellow	90	True	ludinos
4	8376	truth_conditions	bare	stripes	generic	8	gold	10	True	daiths
4	10996	truth_conditions	nondistinctive	legs	generic	9	pink	50	True	feps
4	2830	truth_conditions	bare	shells	generic	10	green	50	True	moxes
4	5591	truth_conditions	bare	tails	generic	11	orange	50	True	zorbs
4	7308	truth_conditions	danger/distinct	tails	generic	12	purple	30	True	taifels
4	6801	truth_conditions	nondistinctive	ears	generic	13	orange	30	False	kazzes
4	5568	truth_conditions	nondistinctive	fur	generic	14	copper	10	False	kweps
4	7811	truth_conditions	nondistinctive	shells	generic	15	purple	50	True	javs
4	8880	truth_conditions	bare	ears	generic	16	blue	30	True	cheebas
4	7874	truth_conditions	danger/distinct	shells	generic	17	orange	50	True	luzaks
4	3243	truth_conditions	bare	feathers	generic	18	purple	70	True	lorches
4	11687	truth_conditions	danger/distinct	feathers	generic	19	gold	50	True	plovs
4	2967	truth_conditions	bare	fur	generic	20	silver	70	True	morseths
4	5830	truth_conditions	nondistinctive	scales	generic	21	yellow	90	True	dorbs
4	7236	truth_conditions	nondistinctive	feathers	generic	22	red	70	True	noobs
4	8433	truth_conditions	danger/distinct	legs	generic	23	silver	70	True	ackles
4	7952	truth_conditions	danger/distinct	spots	generic	24	red	90	True	sapers
4	14515	truth_conditions	danger/distinct	scales	generic	25	blue	10	True	reesles
4	11030	truth_conditions	danger/distinct	fur	generic	26	yellow	90	True	ollers
4	3170	truth_conditions	bare	scales	generic	27	red	10	False	blins
4	5964	truth_conditions	nondistinctive	teeth	generic	28	blue	30	False	thups
4	8300	truth_conditions	nondistinctive	tails	generic	29	green	90	True	trufts
5	17022	truth_conditions	danger/distinct	ears	generic	0	pink	30	True	elleps
5	7796	truth_conditions	danger/distinct	teeth	generic	1	green	30	True	zoovs
5	5092	truth_conditions	bare	ears	generic	2	blue	10	True	cheebas
5	6539	truth_conditions	nondistinctive	teeth	generic	3	blue	30	True	thups
5	4771	truth_conditions	bare	feathers	generic	4	purple	90	True	lorches
5	5052	truth_conditions	bare	tails	generic	5	orange	30	True	zorbs
5	7515	truth_conditions	danger/distinct	stripes	generic	6	copper	90	True	mooks
5	3776	truth_conditions	bare	scales	generic	7	red	10	True	blins
5	5547	truth_conditions	bare	stripes	generic	8	gold	70	True	daiths
5	6001	truth_conditions	nondistinctive	fur	generic	9	copper	90	True	kweps
5	4016	truth_conditions	bare	fur	generic	10	silver	50	True	morseths
5	2411	truth_conditions	bare	teeth	generic	11	pink	90	True	krivels
5	5548	truth_conditions	nondistinctive	ears	generic	12	orange	30	True	kazzes
5	7221	truth_conditions	nondistinctive	tails	generic	13	green	70	True	trufts
5	6399	truth_conditions	danger/distinct	fur	generic	14	yellow	90	True	ollers
5	5579	truth_conditions	danger/distinct	spots	generic	15	red	50	True	sapers
5	6440	truth_conditions	nondistinctive	scales	generic	16	yellow	10	True	dorbs
5	36335	truth_conditions	danger/distinct	tails	generic	17	purple	70	True	taifels
5	3026	truth_conditions	bare	spots	generic	18	copper	30	True	glippets
5	4589	truth_conditions	nondistinctive	spots	generic	19	gold	50	True	stups
5	4520	truth_conditions	danger/distinct	scales	generic	20	blue	10	True	reesles
5	4793	truth_conditions	nondistinctive	shells	generic	21	purple	70	True	javs
5	25131	truth_conditions	nondistinctive	stripes	generic	22	silver	10	True	frams
5	7641	truth_conditions	danger/distinct	legs	generic	23	silver	10	True	ackles
5	4833	truth_conditions	nondistinctive	feathers	generic	24	red	90	True	noobs
5	2282	truth_conditions	bare	legs	generic	25	yellow	70	True	ludinos
5	2485	truth_conditions	bare	shells	generic	26	green	50	True	moxes
5	6698	truth_conditions	danger/distinct	shells	generic	27	orange	70	True	luzaks
5	4480	truth_conditions	nondistinctive	legs	generic	28	pink	50	True	feps
5	8484	truth_conditions	danger/distinct	feathers	generic	29	gold	50	True	plovs
6	22169	truth_conditions	danger/distinct	legs	generic	0	silver	90	True	ackles
6	18031	truth_conditions	nondistinctive	feathers	generic	1	red	10	True	noobs
6	8905	truth_conditions	nondistinctive	legs	generic	2	pink	30	True	feps
6	10660	truth_conditions	nondistinctive	tails	generic	3	green	10	True	trufts
6	10288	truth_conditions	danger/distinct	tails	generic	4	purple	70	True	taifels
6	9914	truth_conditions	danger/distinct	shells	generic	5	orange	50	True	luzaks
6	11833	truth_conditions	danger/distinct	ears	generic	6	pink	70	True	elleps
6	9264	truth_conditions	nondistinctive	teeth	generic	7	blue	90	True	thups
6	10557	truth_conditions	nondistinctive	scales	generic	8	yellow	90	True	dorbs
6	8231	truth_conditions	danger/distinct	scales	generic	9	blue	50	True	reesles
6	9491	truth_conditions	bare	ears	generic	10	blue	10	True	cheebas
6	5269	truth_conditions	bare	tails	generic	11	orange	70	True	zorbs
6	8115	truth_conditions	danger/distinct	stripes	generic	12	copper	90	True	mooks
6	5605	truth_conditions	bare	legs	generic	13	yellow	30	True	ludinos
6	10013	truth_conditions	bare	spots	generic	14	copper	90	True	glippets
6	8810	truth_conditions	danger/distinct	feathers	generic	15	gold	10	True	plovs
6	3425	truth_conditions	bare	scales	generic	16	red	90	True	blins
6	5750	truth_conditions	bare	feathers	generic	17	purple	10	True	lorches
6	8573	truth_conditions	danger/distinct	spots	generic	18	red	10	True	sapers
6	6437	truth_conditions	nondistinctive	ears	generic	19	orange	30	True	kazzes
6	10887	truth_conditions	danger/distinct	fur	generic	20	yellow	30	True	ollers
6	3076	truth_conditions	bare	stripes	generic	21	gold	30	True	daiths
6	4573	truth_conditions	bare	shells	generic	22	green	50	True	moxes
6	5987	truth_conditions	nondistinctive	shells	generic	23	purple	70	True	javs
6	7420	truth_conditions	nondistinctive	stripes	generic	24	silver	50	True	frams
6	9520	truth_conditions	danger/distinct	teeth	generic	25	green	30	True	zoovs
6	3057	truth_conditions	bare	fur	generic	26	silver	70	True	morseths
6	3891	truth_conditions	bare	teeth	generic	27	pink	50	True	krivels
6	5875	truth_conditions	nondistinctive	spots	generic	28	gold	50	True	stups
6	7672	truth_conditions	nondistinctive	fur	generic	29	copper	70	True	kweps
7	3944	truth_conditions	bare	legs	generic	0	yellow	70	False	ludinos
7	4891	truth_conditions	danger/distinct	feathers	generic	1	gold	90	True	plovs
7	2733	truth_conditions	bare	tails	generic	2	orange	70	False	zorbs
7	1540	truth_conditions	bare	feathers	generic	3	purple	50	False	lorches
7	6433	truth_conditions	nondistinctive	stripes	generic	4	silver	30	False	frams
7	3184	truth_conditions	bare	fur	generic	5	silver	30	False	morseths
7	8346	truth_conditions	nondistinctive	scales	generic	6	yellow	50	True	dorbs
7	1616	truth_conditions	bare	teeth	generic	7	pink	90	True	krivels
7	5418	truth_conditions	nondistinctive	feathers	generic	8	red	30	True	noobs
7	1518	truth_conditions	bare	stripes	generic	9	gold	10	False	daiths
7	2936	truth_conditions	nondistinctive	tails	generic	10	green	10	False	trufts
7	2442	truth_conditions	nondistinctive	teeth	generic	11	blue	90	True	thups
7	1468	truth_conditions	bare	ears	generic	12	blue	30	False	cheebas
7	2851	truth_conditions	danger/distinct	spots	generic	13	red	10	False	sapers
7	2225	truth_conditions	danger/distinct	stripes	generic	14	copper	50	False	mooks
7	3284	truth_conditions	bare	spots	generic	15	copper	10	False	glippets
7	2782	truth_conditions	danger/distinct	legs	generic	16	silver	70	True	ackles
7	3312	truth_conditions	danger/distinct	ears	generic	17	pink	30	False	elleps
7	4040	truth_conditions	nondistinctive	fur	generic	18	copper	10	False	kweps
7	1714	truth_conditions	bare	shells	generic	19	green	50	False	moxes
7	2648	truth_conditions	danger/distinct	shells	generic	20	orange	50	False	luzaks
7	5331	truth_conditions	nondistinctive	legs	generic	21	pink	70	True	feps
7	1964	truth_conditions	nondistinctive	ears	generic	22	orange	70	True	kazzes
7	1796	truth_conditions	danger/distinct	scales	generic	23	blue	90	True	reesles
7	6827	truth_conditions	danger/distinct	fur	generic	24	yellow	70	True	ollers
7	2768	truth_conditions	danger/distinct	tails	generic	25	purple	30	False	taifels
7	2165	truth_conditions	nondistinctive	shells	generic	26	purple	50	False	javs
7	4267	truth_conditions	danger/distinct	teeth	generic	27	green	10	False	zoovs
7	1583	truth_conditions	bare	scales	generic	28	red	90	True	blins
7	2356	truth_conditions	nondistinctive	spots	generic	29	gold	90	True	stups
8	23231	truth_conditions	danger/distinct	ears	generic	0	pink	90	True	elleps
8	95679	truth_conditions	nondistinctive	scales	generic	1	yellow	70	True	dorbs
8	193133	truth_conditions	danger/distinct	shells	generic	2	orange	90	True	luzaks
8	6219	truth_conditions	bare	teeth	generic	3	pink	70	True	krivels
8	10735	truth_conditions	bare	shells	generic	4	green	10	True	moxes
8	12664	truth_conditions	nondistinctive	legs	generic	5	pink	50	True	feps
8	93210	truth_conditions	danger/distinct	teeth	generic	6	green	50	True	zoovs
8	8487	truth_conditions	nondistinctive	stripes	generic	7	silver	50	True	frams
8	6837	truth_conditions	nondistinctive	tails	generic	8	green	90	True	trufts
8	46224	truth_conditions	danger/distinct	legs	generic	9	silver	10	True	ackles
8	5021	truth_conditions	danger/distinct	fur	generic	10	yellow	70	True	ollers
8	22320	truth_conditions	nondistinctive	fur	generic	11	copper	30	True	kweps
8	4568	truth_conditions	nondistinctive	teeth	generic	12	blue	30	True	thups
8	4616	truth_conditions	nondistinctive	spots	generic	13	gold	10	True	stups
8	29434	truth_conditions	danger/distinct	tails	generic	14	purple	50	True	taifels
8	3773	truth_conditions	bare	legs	generic	15	yellow	30	True	ludinos
8	2409	truth_conditions	bare	tails	generic	16	orange	30	True	zorbs
8	2982	truth_conditions	bare	stripes	generic	17	gold	90	True	daiths
8	23616	truth_conditions	nondistinctive	shells	generic	18	purple	10	True	javs
8	5271	truth_conditions	danger/distinct	feathers	generic	19	gold	10	True	plovs
8	6935	truth_conditions	nondistinctive	feathers	generic	20	red	70	True	noobs
8	3616	truth_conditions	bare	feathers	generic	21	purple	50	True	lorches
8	7136	truth_conditions	bare	ears	generic	22	blue	70	True	cheebas
8	5128	truth_conditions	danger/distinct	stripes	generic	23	copper	30	True	mooks
8	9104	truth_conditions	danger/distinct	scales	generic	24	blue	70	True	reesles
8	8847	truth_conditions	bare	spots	generic	25	copper	90	True	glippets
8	3816	truth_conditions	bare	scales	generic	26	red	10	True	blins
8	3922	truth_conditions	bare	fur	generic	27	silver	50	True	morseths
8	6023	truth_conditions	nondistinctive	ears	generic	28	orange	90	True	kazzes
8	5837	truth_conditions	danger/distinct	spots	generic	29	red	30	True	sapers
9	10234	truth_conditions	nondistinctive	fur	generic	0	copper	70	True	kweps
9	16187	truth_conditions	nondistinctive	shells	generic	1	purple	90	True	javs
9	5067	truth_conditions	nondistinctive	tails	generic	2	green	50	True	trufts
9	6712	truth_conditions	danger/distinct	fur	generic	3	yellow	10	False	ollers
9	136492	truth_conditions	danger/distinct	spots	generic	4	red	90	True	sapers
9	4247	truth_conditions	danger/distinct	scales	generic	5	blue	90	True	reesles
9	28001	truth_conditions	nondistinctive	scales	generic	6	yellow	30	False	dorbs
9	3452	truth_conditions	bare	stripes	generic	7	gold	10	False	daiths
9	5071	truth_conditions	danger/distinct	shells	generic	8	orange	50	True	luzaks
9	3275	truth_conditions	bare	spots	generic	9	copper	50	True	glippets
9	2233	truth_conditions	bare	ears	generic	10	blue	90	True	cheebas
9	4982	truth_conditions	danger/distinct	ears	generic	11	pink	30	True	elleps
9	3286	truth_conditions	bare	shells	generic	12	green	30	False	moxes
9	10031	truth_conditions	danger/distinct	teeth	generic	13	green	70	True	zoovs
9	3452	truth_conditions	nondistinctive	spots	generic	14	gold	90	True	stups
9	4491	truth_conditions	bare	teeth	generic	15	pink	50	False	krivels
9	13045	truth_conditions	danger/distinct	tails	generic	16	purple	50	True	taifels
9	4061	truth_conditions	nondistinctive	feathers	generic	17	red	50	False	noobs
9	3030	truth_conditions	bare	scales	generic	18	red	70	True	blins
9	1810	truth_conditions	bare	legs	generic	19	yellow	90	True	ludinos
9	4533	truth_conditions	nondistinctive	legs	generic	20	pink	10	False	feps
9	5057	truth_conditions	danger/distinct	feathers	generic	21	gold	10	True	plovs
9	1996	truth_conditions	bare	tails	generic	22	orange	70	True	zorbs
9	4273	truth_conditions	danger/distinct	stripes	generic	23	copper	70	True	mooks
9	4188	truth_conditions	nondistinctive	ears	generic	24	orange	30	False	kazzes
9	4319	truth_conditions	nondistinctive	stripes	generic	25	silver	10	False	frams
9	3633	truth_conditions	danger/distinct	legs	generic	26	silver	30	True	ackles
9	2788	truth_conditions	bare	feathers	generic	27	purple	30	False	lorches
9	4905	truth_conditions	nondistinctive	teeth	generic	28	blue	70	True	thups
9	4803	truth_conditions	bare	fur	generic	29	silver	10	False	morseths
10	8876	truth_conditions	nondistinctive	spots	generic	0	gold	50	True	stups
10	4657	truth_conditions	bare	shells	generic	1	green	70	True	moxes
10	7849	truth_conditions	nondistinctive	shells	generic	2	purple	50	True	javs
10	7278	truth_conditions	danger/distinct	fur	generic	3	yellow	70	True	ollers
10	7338	truth_conditions	danger/distinct	stripes	generic	4	copper	10	True	mooks
10	2607	truth_conditions	bare	stripes	generic	5	gold	90	True	daiths
10	2612	truth_conditions	bare	fur	generic	6	silver	50	True	morseths
10	2899	truth_conditions	bare	teeth	generic	7	pink	70	True	krivels
10	4752	truth_conditions	bare	tails	generic	8	orange	30	True	zorbs
10	5366	truth_conditions	nondistinctive	scales	generic	9	yellow	90	True	dorbs
10	3449	truth_conditions	danger/distinct	spots	generic	10	red	90	True	sapers
10	4018	truth_conditions	danger/distinct	tails	generic	11	purple	30	True	taifels
10	5466	truth_conditions	danger/distinct	scales	generic	12	blue	90	True	reesles
10	4118	truth_conditions	danger/distinct	ears	generic	13	pink	50	True	elleps
10	4299	truth_conditions	nondistinctive	fur	generic	14	copper	70	True	kweps
10	3649	truth_conditions	bare	ears	generic	15	blue	10	True	cheebas
10	3588	truth_conditions	nondistinctive	feathers	generic	16	red	30	True	noobs
10	4146	truth_conditions	nondistinctive	teeth	generic	17	blue	70	True	thups
10	4992	truth_conditions	danger/distinct	teeth	generic	18	green	10	True	zoovs
10	3798	truth_conditions	danger/distinct	legs	generic	19	silver	30	True	ackles
10	3580	truth_conditions	bare	scales	generic	20	red	10	True	blins
10	2556	truth_conditions	bare	legs	generic	21	yellow	30	True	ludinos
10	7159	truth_conditions	danger/distinct	shells	generic	22	orange	50	True	luzaks
10	4599	truth_conditions	nondistinctive	ears	generic	23	orange	90	True	kazzes
10	2458	truth_conditions	bare	feathers	generic	24	purple	90	True	lorches
10	3333	truth_conditions	bare	spots	generic	25	copper	50	True	glippets
10	3446	truth_conditions	nondistinctive	stripes	generic	26	silver	10	True	frams
10	5153	truth_conditions	nondistinctive	legs	generic	27	pink	30	True	feps
10	3120	truth_conditions	nondistinctive	tails	generic	28	green	10	True	trufts
10	3391	truth_conditions	danger/distinct	feathers	generic	29	gold	70	True	plovs
11	2075	truth_conditions	bare	ears	generic	0	blue	90	True	cheebas
11	1994	truth_conditions	danger/distinct	scales	generic	1	blue	50	False	reesles
11	2441	truth_conditions	danger/distinct	stripes	generic	2	copper	30	True	mooks
11	1765	truth_conditions	nondistinctive	fur	generic	3	copper	90	False	kweps
11	2521	truth_conditions	nondistinctive	teeth	generic	4	blue	10	True	thups
11	3838	truth_conditions	bare	shells	generic	5	green	10	True	moxes
11	2839	truth_conditions	nondistinctive	tails	generic	6	green	50	True	trufts
11	2784	truth_conditions	bare	feathers	generic	7	purple	50	True	lorches
11	4439	truth_conditions	danger/distinct	feathers	generic	8	gold	30	True	plovs
11	4927	truth_conditions	bare	fur	generic	9	silver	10	True	morseths
11	1784	truth_conditions	bare	legs	generic	10	yellow	70	True	ludinos
11	4856	truth_conditions	danger/distinct	spots	generic	11	red	90	False	sapers
11	2223	truth_conditions	bare	tails	generic	12	orange	90	True	zorbs
11	3473	truth_conditions	danger/distinct	shells	generic	13	orange	90	True	luzaks
11	1895	truth_conditions	danger/distinct	fur	generic	14	yellow	70	True	ollers
11	2160	truth_conditions	danger/distinct	teeth	generic	15	green	70	True	zoovs
11	2191	truth_conditions	bare	teeth	generic	16	pink	30	True	krivels
11	1407	truth_conditions	nondistinctive	feathers	generic	17	red	10	True	noobs
11	1424	truth_conditions	nondistinctive	stripes	generic	18	silver	30	True	frams
11	7200	truth_conditions	nondistinctive	shells	generic	19	purple	30	True	javs
11	1055	truth_conditions	bare	spots	generic	20	copper	50	True	glippets
11	1800	truth_conditions	danger/distinct	ears	generic	21	pink	10	True	elleps
11	1976	truth_conditions	bare	stripes	generic	22	gold	30	True	daiths
11	1535	truth_conditions	nondistinctive	scales	generic	23	yellow	70	True	dorbs
11	1361	truth_conditions	danger/distinct	tails	generic	24	purple	50	True	taifels
11	1985	truth_conditions	nondistinctive	ears	generic	25	orange	70	True	kazzes
11	1773	truth_conditions	nondistinctive	spots	generic	26	gold	90	True	stups
11	1560	truth_conditions	danger/distinct	legs	generic	27	silver	10	True	ackles
11	1445	truth_conditions	bare	scales	generic	28	red	70	True	blins
11	1568	truth_conditions	nondistinctive	legs	generic	29	pink	50	True	feps
12	9586	truth_conditions	bare	ears	generic	0	blue	70	True	cheebas
12	7831	truth_conditions	nondistinctive	stripes	generic	1	silver	30	False	frams
12	3865	truth_conditions	bare	legs	generic	2	yellow	90	True	ludinos
12	3085	truth_conditions	bare	tails	generic	3	orange	30	False	zorbs
12	6868	truth_conditions	nondistinctive	tails	generic	4	green	70	True	trufts
12	4250	truth_conditions	bare	stripes	generic	5	gold	30	False	daiths
12	2564	truth_conditions	nondistinctive	legs	generic	6	pink	50	True	feps
12	3401	truth_conditions	danger/distinct	tails	generic	7	purple	90	True	taifels
12	5767	truth_conditions	danger/distinct	ears	generic	8	pink	70	True	elleps
12	2400	truth_conditions	bare	feathers	generic	9	purple	90	True	lorches
12	3337	truth_conditions	bare	spots	generic	10	copper	10	False	glippets
12	3595	truth_conditions	danger/distinct	fur	generic	11	yellow	10	False	ollers
12	2899	truth_conditions	danger/distinct	spots	generic	12	red	90	True	sapers
12	3102	truth_conditions	danger/distinct	legs	generic	13	silver	50	True	ackles
12	3849	truth_conditions	danger/distinct	feathers	generic	14	gold	50	True	plovs
12	2768	truth_conditions	danger/distinct	teeth	generic	15	green	30	False	zoovs
12	6799	truth_conditions	bare	fur	generic	16	silver	50	True	morseths
12	2398	truth_conditions	bare	teeth	generic	17	pink	10	False	krivels
12	4183	truth_conditions	danger/distinct	stripes	generic	18	copper	30	False	mooks
12	2367	truth_conditions	bare	scales	generic	19	red	50	True	blins
12	3216	truth_conditions	danger/distinct	shells	generic	20	orange	70	True	luzaks
12	2418	truth_conditions	nondistinctive	feathers	generic	21	red	50	True	noobs
12	2332	truth_conditions	danger/distinct	scales	generic	22	blue	10	False	reesles
12	1986	truth_conditions	nondistinctive	teeth	generic	23	blue	90	True	thups
12	4080	truth_conditions	nondistinctive	shells	generic	24	purple	90	True	javs
12	2818	truth_conditions	nondistinctive	scales	generic	25	yellow	70	True	dorbs
12	2434	truth_conditions	nondistinctive	fur	generic	26	copper	10	False	kweps
12	2685	truth_conditions	nondistinctive	ears	generic	27	orange	30	False	kazzes
12	4150	truth_conditions	bare	shells	generic	28	green	70	True	moxes
12	2248	truth_conditions	nondistinctive	spots	generic	29	gold	10	False	stups
13	6971	truth_conditions	bare	feathers	generic	0	purple	30	True	lorches
13	9702	truth_conditions	danger/distinct	scales	generic	1	blue	10	True	reesles
13	2809	truth_conditions	bare	tails	generic	2	orange	70	True	zorbs
13	8023	truth_conditions	danger/distinct	legs	generic	3	silver	50	True	ackles
13	3286	truth_conditions	bare	stripes	generic	4	gold	90	True	daiths
13	5853	truth_conditions	nondistinctive	tails	generic	5	green	50	True	trufts
13	2188	truth_conditions	nondistinctive	fur	generic	6	copper	90	True	kweps
13	8545	truth_conditions	nondistinctive	spots	generic	7	gold	10	False	stups
13	2367	truth_conditions	bare	fur	generic	8	silver	90	True	morseths
13	3704	truth_conditions	danger/distinct	stripes	generic	9	copper	10	False	mooks
13	1655	truth_conditions	nondistinctive	ears	generic	10	orange	70	True	kazzes
13	2685	truth_conditions	nondistinctive	shells	generic	11	purple	10	False	javs
13	1691	truth_conditions	nondistinctive	legs	generic	12	pink	30	False	feps
13	1523	truth_conditions	nondistinctive	scales	generic	13	yellow	50	True	dorbs
13	3325	truth_conditions	danger/distinct	feathers	generic	14	gold	90	True	plovs
13	2188	truth_conditions	bare	shells	generic	15	green	70	True	moxes
13	2197	truth_conditions	bare	teeth	generic	16	pink	10	False	krivels
13	1276	truth_conditions	bare	ears	generic	17	blue	50	True	cheebas
13	6297	truth_conditions	danger/distinct	ears	generic	18	pink	70	True	elleps
13	2562	truth_conditions	danger/distinct	tails	generic	19	purple	50	True	taifels
13	1481	truth_conditions	nondistinctive	teeth	generic	20	blue	30	False	thups
13	2185	truth_conditions	nondistinctive	feathers	generic	21	red	90	True	noobs
13	2522	truth_conditions	nondistinctive	stripes	generic	22	silver	70	True	frams
13	2842	truth_conditions	danger/distinct	spots	generic	23	red	70	True	sapers
13	2376	truth_conditions	bare	scales	generic	24	red	10	False	blins
13	1735	truth_conditions	bare	spots	generic	25	copper	50	True	glippets
13	3179	truth_conditions	bare	legs	generic	26	yellow	30	False	ludinos
13	3083	truth_conditions	danger/distinct	fur	generic	27	yellow	90	True	ollers
13	1678	truth_conditions	danger/distinct	teeth	generic	28	green	30	False	zoovs
13	4005	truth_conditions	danger/distinct	shells	generic	29	orange	30	False	luzaks
14	7313	truth_conditions	bare	legs	generic	0	yellow	70	True	ludinos
14	11400	truth_conditions	danger/distinct	shells	generic	1	orange	50	True	luzaks
14	9484	truth_conditions	nondistinctive	shells	generic	2	purple	50	True	javs
14	5231	truth_conditions	nondistinctive	ears	generic	3	orange	70	True	kazzes
14	6075	truth_conditions	nondistinctive	scales	generic	4	yellow	90	True	dorbs
14	3726	truth_conditions	bare	ears	generic	5	blue	50	True	cheebas
14	13735	truth_conditions	danger/distinct	legs	generic	6	silver	90	True	ackles
14	5354	truth_conditions	danger/distinct	fur	generic	7	yellow	70	True	ollers
14	4374	truth_conditions	danger/distinct	scales	generic	8	blue	10	True	reesles
14	2686	truth_conditions	bare	shells	generic	9	green	50	True	moxes
14	2071	truth_conditions	bare	spots	generic	10	copper	10	True	glippets
14	4328	truth_conditions	nondistinctive	teeth	generic	11	blue	30	True	thups
14	3234	truth_conditions	danger/distinct	stripes	generic	12	copper	70	True	mooks
14	4017	truth_conditions	nondistinctive	spots	generic	13	gold	70	True	stups
14	3748	truth_conditions	nondistinctive	fur	generic	14	copper	90	True	kweps
14	3138	truth_conditions	bare	teeth	generic	15	pink	70	True	krivels
14	3536	truth_conditions	bare	tails	generic	16	orange	30	True	zorbs
14	4568	truth_conditions	nondistinctive	legs	generic	17	pink	10	True	feps
14	3022	truth_conditions	nondistinctive	feathers	generic	18	red	30	True	noobs
14	3237	truth_conditions	danger/distinct	teeth	generic	19	green	50	True	zoovs
14	3355	truth_conditions	nondistinctive	stripes	generic	20	silver	10	True	frams
14	3375	truth_conditions	nondistinctive	tails	generic	21	green	50	True	trufts
14	5044	truth_conditions	danger/distinct	ears	generic	22	pink	10	True	elleps
14	3048	truth_conditions	bare	feathers	generic	23	purple	30	True	lorches
14	4450	truth_conditions	danger/distinct	feathers	generic	24	gold	30	True	plovs
14	4991	truth_conditions	bare	fur	generic	25	silver	10	True	morseths
14	4839	truth_conditions	danger/distinct	tails	generic	26	purple	30	True	taifels
14	2621	truth_conditions	bare	scales	generic	27	red	90	True	blins
14	1844	truth_conditions	bare	stripes	generic	28	gold	90	True	daiths
14	6666	truth_conditions	danger/distinct	spots	generic	29	red	90	True	sapers
15	12397	truth_conditions	nondistinctive	scales	generic	0	yellow	90	False	dorbs
15	8560	truth_conditions	nondistinctive	legs	generic	1	pink	70	False	feps
15	5988	truth_conditions	bare	tails	generic	2	orange	30	False	zorbs
15	6363	truth_conditions	nondistinctive	shells	generic	3	purple	70	False	javs
15	6116	truth_conditions	nondistinctive	ears	generic	4	orange	10	False	kazzes
15	4910	truth_conditions	danger/distinct	teeth	generic	5	green	70	False	zoovs
15	3394	truth_conditions	bare	spots	generic	6	copper	70	False	glippets
15	4659	truth_conditions	nondistinctive	teeth	generic	7	blue	30	False	thups
15	3105	truth_conditions	bare	scales	generic	8	red	90	False	blins
15	3977	truth_conditions	danger/distinct	tails	generic	9	purple	70	False	taifels
15	6498	truth_conditions	bare	teeth	generic	10	pink	90	False	krivels
15	6767	truth_conditions	danger/distinct	stripes	generic	11	copper	10	False	mooks
15	4547	truth_conditions	danger/distinct	ears	generic	12	pink	30	False	elleps
15	4213	truth_conditions	bare	fur	generic	13	silver	50	False	morseths
15	3589	truth_conditions	bare	feathers	generic	14	purple	70	False	lorches
15	2815	truth_conditions	bare	shells	generic	15	green	10	False	moxes
15	4649	truth_conditions	nondistinctive	spots	generic	16	gold	30	False	stups
15	3038	truth_conditions	bare	ears	generic	17	blue	50	False	cheebas
15	8600	truth_conditions	danger/distinct	scales	generic	18	blue	90	False	reesles
15	4196	truth_conditions	nondistinctive	tails	generic	19	green	90	False	trufts
15	3712	truth_conditions	nondistinctive	feathers	generic	20	red	10	False	noobs
15	4836	truth_conditions	nondistinctive	stripes	generic	21	silver	50	False	frams
15	3547	truth_conditions	danger/distinct	feathers	generic	22	gold	50	False	plovs
15	4330	truth_conditions	danger/distinct	legs	generic	23	silver	50	False	ackles
15	3784	truth_conditions	bare	stripes	generic	24	gold	10	False	daiths
15	4855	truth_conditions	danger/distinct	fur	generic	25	yellow	10	False	ollers
15	5182	truth_conditions	nondistinctive	fur	generic	26	copper	50	False	kweps
15	3624	truth_conditions	danger/distinct	shells	generic	27	orange	90	False	luzaks
15	4767	truth_conditions	danger/distinct	spots	generic	28	red	30	False	sapers
15	3120	truth_conditions	bare	legs	generic	29	yellow	30	False	ludinos
16	5226	truth_conditions	bare	spots	generic	0	copper	70	True	glippets
16	3710	truth_conditions	danger/distinct	shells	generic	1	orange	90	True	luzaks
16	3149	truth_conditions	bare	scales	generic	2	red	70	True	blins
16	2455	truth_conditions	nondistinctive	tails	generic	3	green	30	True	trufts
16	4071	truth_conditions	danger/distinct	feathers	generic	4	gold	70	True	plovs
16	1936	truth_conditions	bare	tails	generic	5	orange	90	True	zorbs
16	2240	truth_conditions	nondistinctive	stripes	generic	6	silver	30	True	frams
16	2263	truth_conditions	danger/distinct	teeth	generic	7	green	30	True	zoovs
16	1359	truth_conditions	nondistinctive	ears	generic	8	orange	90	True	kazzes
16	2335	truth_conditions	danger/distinct	spots	generic	9	red	10	True	sapers
16	1494	truth_conditions	nondistinctive	feathers	generic	10	red	10	True	noobs
16	2984	truth_conditions	bare	legs	generic	11	yellow	10	True	ludinos
16	2279	truth_conditions	bare	shells	generic	12	green	10	True	moxes
16	20083	truth_conditions	nondistinctive	fur	generic	13	copper	70	True	kweps
16	1460	truth_conditions	bare	stripes	generic	14	gold	50	True	daiths
16	1727	truth_conditions	danger/distinct	scales	generic	15	blue	70	True	reesles
16	2670	truth_conditions	bare	feathers	generic	16	purple	90	True	lorches
16	4184	truth_conditions	nondistinctive	scales	generic	17	yellow	90	True	dorbs
16	3383	truth_conditions	danger/distinct	legs	generic	18	silver	30	True	ackles
16	1992	truth_conditions	danger/distinct	tails	generic	19	purple	90	True	taifels
16	6009	truth_conditions	bare	fur	generic	20	silver	50	True	morseths
16	2745	truth_conditions	bare	ears	generic	21	blue	30	True	cheebas
16	2448	truth_conditions	nondistinctive	shells	generic	22	purple	70	True	javs
16	2893	truth_conditions	bare	teeth	generic	23	pink	30	True	krivels
16	1967	truth_conditions	danger/distinct	stripes	generic	24	copper	50	True	mooks
16	2058	truth_conditions	danger/distinct	fur	generic	25	yellow	10	True	ollers
16	4117	truth_conditions	nondistinctive	spots	generic	26	gold	10	True	stups
16	1744	truth_conditions	nondistinctive	teeth	generic	27	blue	50	True	thups
16	3047	truth_conditions	nondistinctive	legs	generic	28	pink	50	True	feps
16	1926	truth_conditions	danger/distinct	ears	generic	29	pink	50	True	elleps
17	26423	truth_conditions	danger/distinct	scales	generic	0	blue	10	True	reesles
17	6911	truth_conditions	bare	stripes	generic	1	gold	70	True	daiths
17	11815	truth_conditions	danger/distinct	ears	generic	2	pink	50	True	elleps
17	13580	truth_conditions	nondistinctive	shells	generic	3	purple	30	True	javs
17	5662	truth_conditions	bare	teeth	generic	4	pink	90	True	krivels
17	11233	truth_conditions	danger/distinct	feathers	generic	5	gold	30	True	plovs
17	11534	truth_conditions	nondistinctive	ears	generic	6	orange	30	True	kazzes
17	6597	truth_conditions	bare	scales	generic	7	red	10	True	blins
17	12205	truth_conditions	danger/distinct	shells	generic	8	orange	30	True	luzaks
17	8346	truth_conditions	danger/distinct	legs	generic	9	silver	10	True	ackles
17	11799	truth_conditions	nondistinctive	scales	generic	10	yellow	50	True	dorbs
17	10319	truth_conditions	bare	legs	generic	11	yellow	10	False	ludinos
17	11348	truth_conditions	bare	spots	generic	12	copper	30	False	glippets
17	6681	truth_conditions	danger/distinct	teeth	generic	13	green	90	True	zoovs
17	10085	truth_conditions	danger/distinct	fur	generic	14	yellow	90	True	ollers
17	7418	truth_conditions	danger/distinct	spots	generic	15	red	70	True	sapers
17	5108	truth_conditions	bare	tails	generic	16	orange	50	True	zorbs
17	9099	truth_conditions	nondistinctive	legs	generic	17	pink	70	True	feps
17	7077	truth_conditions	bare	fur	generic	18	silver	70	True	morseths
17	5496	truth_conditions	bare	shells	generic	19	green	30	False	moxes
17	8334	truth_conditions	nondistinctive	fur	generic	20	copper	90	True	kweps
17	7276	truth_conditions	nondistinctive	spots	generic	21	gold	90	True	stups
17	6709	truth_conditions	nondistinctive	stripes	generic	22	silver	50	True	frams
17	3901	truth_conditions	bare	feathers	generic	23	purple	90	True	lorches
17	7409	truth_conditions	danger/distinct	stripes	generic	24	copper	70	True	mooks
17	9298	truth_conditions	danger/distinct	tails	generic	25	purple	50	True	taifels
17	6549	truth_conditions	nondistinctive	feathers	generic	26	red	70	True	noobs
17	6107	truth_conditions	nondistinctive	teeth	generic	27	blue	10	False	thups
17	8383	truth_conditions	nondistinctive	tails	generic	28	green	10	False	trufts
17	4718	truth_conditions	bare	ears	generic	29	blue	50	True	cheebas
18	12090	truth_conditions	bare	spots	generic	0	copper	10	True	glippets
18	24535	truth_conditions	nondistinctive	teeth	generic	1	blue	50	False	thups
18	16215	truth_conditions	nondistinctive	stripes	generic	2	silver	70	True	frams
18	13760	truth_conditions	danger/distinct	spots	generic	3	red	10	False	sapers
18	16715	truth_conditions	danger/distinct	ears	generic	4	pink	10	False	elleps
18	5071	truth_conditions	bare	fur	generic	5	silver	90	True	morseths
18	4912	truth_conditions	bare	feathers	generic	6	purple	90	True	lorches
18	6287	truth_conditions	danger/distinct	scales	generic	7	blue	90	True	reesles
18	7848	truth_conditions	danger/distinct	legs	generic	8	silver	70	True	ackles
18	6999	truth_conditions	bare	shells	generic	9	green	50	False	moxes
18	3159	truth_conditions	bare	tails	generic	10	orange	50	False	zorbs
18	8152	truth_conditions	nondistinctive	scales	generic	11	yellow	30	False	dorbs
18	11052	truth_conditions	nondistinctive	shells	generic	12	purple	30	False	javs
18	9383	truth_conditions	danger/distinct	feathers	generic	13	gold	70	True	plovs
18	9744	truth_conditions	nondistinctive	legs	generic	14	pink	10	False	feps
18	8271	truth_conditions	danger/distinct	tails	generic	15	purple	30	False	taifels
18	4991	truth_conditions	bare	stripes	generic	16	gold	70	True	daiths
18	9368	truth_conditions	danger/distinct	shells	generic	17	orange	30	False	luzaks
18	7382	truth_conditions	bare	legs	generic	18	yellow	30	False	ludinos
18	5456	truth_conditions	bare	teeth	generic	19	pink	10	False	krivels
18	15827	truth_conditions	danger/distinct	teeth	generic	20	green	90	True	zoovs
18	7984	truth_conditions	danger/distinct	fur	generic	21	yellow	50	True	ollers
18	6375	truth_conditions	nondistinctive	feathers	generic	22	red	50	False	noobs
18	5120	truth_conditions	bare	ears	generic	23	blue	70	True	cheebas
18	6488	truth_conditions	nondistinctive	tails	generic	24	green	90	True	trufts
18	11560	truth_conditions	danger/distinct	stripes	generic	25	copper	50	False	mooks
18	6704	truth_conditions	nondistinctive	spots	generic	26	gold	90	True	stups
18	9621	truth_conditions	nondistinctive	ears	generic	27	orange	70	False	kazzes
18	6920	truth_conditions	nondistinctive	fur	generic	28	copper	10	False	kweps
18	3999	truth_conditions	bare	scales	generic	29	red	30	False	blins
19	10763	truth_conditions	nondistinctive	teeth	generic	0	blue	30	False	thups
19	16086	truth_conditions	danger/distinct	ears	generic	1	pink	30	False	elleps
19	9208	truth_conditions	nondistinctive	stripes	generic	2	silver	50	False	frams
19	4808	truth_conditions	nondistinctive	spots	generic	3	gold	70	False	stups
19	9224	truth_conditions	danger/distinct	feathers	generic	4	gold	50	False	plovs
19	7345	truth_conditions	danger/distinct	stripes	generic	5	copper	90	False	mooks
19	4079	truth_conditions	nondistinctive	ears	generic	6	orange	90	False	kazzes
19	5853	truth_conditions	nondistinctive	fur	generic	7	copper	10	False	kweps
19	6519	truth_conditions	danger/distinct	shells	generic	8	orange	10	False	luzaks
19	6130	truth_conditions	bare	ears	generic	9	blue	30	False	cheebas
19	7215	truth_conditions	bare	shells	generic	10	green	50	False	moxes
19	5672	truth_conditions	danger/distinct	scales	generic	11	blue	50	False	reesles
19	2841	truth_conditions	bare	legs	generic	12	yellow	10	False	ludinos
19	4703	truth_conditions	danger/distinct	spots	generic	13	red	70	False	sapers
19	6280	truth_conditions	danger/distinct	tails	generic	14	purple	30	False	taifels
19	2768	truth_conditions	bare	spots	generic	15	copper	10	False	glippets
19	4168	truth_conditions	bare	tails	generic	16	orange	90	False	zorbs
19	4397	truth_conditions	danger/distinct	teeth	generic	17	green	70	False	zoovs
19	3074	truth_conditions	nondistinctive	scales	generic	18	yellow	50	False	dorbs
19	3299	truth_conditions	bare	fur	generic	19	silver	30	False	morseths
19	2115	truth_conditions	danger/distinct	legs	generic	20	silver	90	False	ackles
19	3599	truth_conditions	danger/distinct	fur	generic	21	yellow	10	False	ollers
19	2056	truth_conditions	nondistinctive	feathers	generic	22	red	90	False	noobs
19	3632	truth_conditions	bare	stripes	generic	23	gold	90	False	daiths
19	6039	truth_conditions	nondistinctive	tails	generic	24	green	30	False	trufts
19	3488	truth_conditions	nondistinctive	shells	generic	25	purple	10	False	javs
19	1945	truth_conditions	bare	scales	generic	26	red	50	False	blins
19	5274	truth_conditions	nondistinctive	legs	generic	27	pink	70	False	feps
19	2773	truth_conditions	bare	teeth	generic	28	pink	70	False	krivels
19	3399	truth_conditions	bare	feathers	generic	29	purple	70	False	lorches
20	27756	truth_conditions	danger/distinct	legs	generic	0	silver	30	True	ackles
20	9672	truth_conditions	danger/distinct	scales	generic	1	blue	30	True	reesles
20	6121	truth_conditions	bare	stripes	generic	2	gold	10	True	daiths
20	7538	truth_conditions	nondistinctive	teeth	generic	3	blue	50	True	thups
20	11518	truth_conditions	danger/distinct	spots	generic	4	red	50	True	sapers
20	10967	truth_conditions	nondistinctive	feathers	generic	5	red	50	True	noobs
20	8607	truth_conditions	nondistinctive	ears	generic	6	orange	90	True	kazzes
20	7930	truth_conditions	danger/distinct	shells	generic	7	orange	70	True	luzaks
20	6721	truth_conditions	danger/distinct	tails	generic	8	purple	50	True	taifels
20	8239	truth_conditions	nondistinctive	shells	generic	9	purple	30	False	javs
20	7205	truth_conditions	bare	shells	generic	10	green	30	False	moxes
20	6224	truth_conditions	nondistinctive	legs	generic	11	pink	10	False	feps
20	6625	truth_conditions	nondistinctive	scales	generic	12	yellow	70	True	dorbs
20	8121	truth_conditions	nondistinctive	fur	generic	13	copper	30	False	kweps
20	9354	truth_conditions	nondistinctive	spots	generic	14	gold	70	True	stups
20	6313	truth_conditions	bare	fur	generic	15	silver	90	True	morseths
20	4411	truth_conditions	danger/distinct	teeth	generic	16	green	10	True	zoovs
20	4251	truth_conditions	bare	scales	generic	17	red	30	False	blins
20	3556	truth_conditions	bare	tails	generic	18	orange	90	True	zorbs
20	2990	truth_conditions	danger/distinct	stripes	generic	19	copper	90	True	mooks
20	3477	truth_conditions	danger/distinct	feathers	generic	20	gold	70	True	plovs
20	3907	truth_conditions	nondistinctive	stripes	generic	21	silver	90	True	frams
20	6696	truth_conditions	bare	ears	generic	22	blue	50	True	cheebas
20	7862	truth_conditions	nondistinctive	tails	generic	23	green	10	False	trufts
20	5893	truth_conditions	bare	spots	generic	24	copper	10	False	glippets
20	5069	truth_conditions	danger/distinct	fur	generic	25	yellow	10	True	ollers
20	3647	truth_conditions	bare	feathers	generic	26	purple	50	True	lorches
20	2985	truth_conditions	danger/distinct	ears	generic	27	pink	90	True	elleps
20	2898	truth_conditions	bare	legs	generic	28	yellow	70	True	ludinos
20	2673	truth_conditions	bare	teeth	generic	29	pink	70	True	krivels
21	16948	truth_conditions	nondistinctive	shells	generic	0	purple	30	True	javs
21	16862	truth_conditions	danger/distinct	scales	generic	1	blue	70	True	reesles
21	12039	truth_conditions	nondistinctive	scales	generic	2	yellow	90	True	dorbs
21	15938	truth_conditions	danger/distinct	feathers	generic	3	gold	50	True	plovs
21	10194	truth_conditions	danger/distinct	fur	generic	4	yellow	70	True	ollers
21	9236	truth_conditions	danger/distinct	legs	generic	5	silver	50	True	ackles
21	6212	truth_conditions	nondistinctive	spots	generic	6	gold	50	True	stups
21	10839	truth_conditions	danger/distinct	teeth	generic	7	green	30	True	zoovs
21	13374	truth_conditions	nondistinctive	teeth	generic	8	blue	10	True	thups
21	4102	truth_conditions	nondistinctive	ears	generic	9	orange	50	True	kazzes
21	5080	truth_conditions	bare	fur	generic	10	silver	90	True	morseths
21	4902	truth_conditions	bare	ears	generic	11	blue	10	True	cheebas
21	4851	truth_conditions	nondistinctive	stripes	generic	12	silver	70	True	frams
21	4200	truth_conditions	bare	feathers	generic	13	purple	70	True	lorches
21	5897	truth_conditions	danger/distinct	spots	generic	14	red	30	True	sapers
21	2618	truth_conditions	bare	teeth	generic	15	pink	30	True	krivels
21	3727	truth_conditions	danger/distinct	tails	generic	16	purple	90	True	taifels
21	6404	truth_conditions	danger/distinct	stripes	generic	17	copper	10	True	mooks
21	3317	truth_conditions	bare	scales	generic	18	red	50	True	blins
21	2315	truth_conditions	bare	legs	generic	19	yellow	50	True	ludinos
21	3699	truth_conditions	nondistinctive	feathers	generic	20	red	10	True	noobs
21	3983	truth_conditions	bare	shells	generic	21	green	30	True	moxes
21	2119	truth_conditions	bare	stripes	generic	22	gold	10	True	daiths
21	4150	truth_conditions	nondistinctive	fur	generic	23	copper	90	True	kweps
21	5965	truth_conditions	bare	spots	generic	24	copper	90	True	glippets
21	3782	truth_conditions	danger/distinct	ears	generic	25	pink	90	True	elleps
21	2970	truth_conditions	nondistinctive	legs	generic	26	pink	30	True	feps
21	2313	truth_conditions	danger/distinct	shells	generic	27	orange	10	True	luzaks
21	3466	truth_conditions	bare	tails	generic	28	orange	70	True	zorbs
21	5087	truth_conditions	nondistinctive	tails	generic	29	green	70	True	trufts
22	16749	truth_conditions	danger/distinct	shells	generic	0	orange	30	True	luzaks
22	7065	truth_conditions	nondistinctive	feathers	generic	1	red	90	True	noobs
22	9726	truth_conditions	danger/distinct	ears	generic	2	pink	10	False	elleps
22	7012	truth_conditions	bare	scales	generic	3	red	10	True	blins
22	5611	truth_conditions	danger/distinct	feathers	generic	4	gold	70	True	plovs
22	5573	truth_conditions	bare	spots	generic	5	copper	50	True	glippets
22	7318	truth_conditions	nondistinctive	shells	generic	6	purple	30	True	javs
22	4169	truth_conditions	nondistinctive	teeth	generic	7	blue	90	True	thups
22	5921	truth_conditions	bare	legs	generic	8	yellow	50	True	ludinos
22	3271	truth_conditions	bare	feathers	generic	9	purple	30	True	lorches
22	3686	truth_conditions	bare	ears	generic	10	blue	70	True	cheebas
22	3687	truth_conditions	nondistinctive	spots	generic	11	gold	30	True	stups
22	4141	truth_conditions	nondistinctive	legs	generic	12	pink	10	True	feps
22	3812	truth_conditions	danger/distinct	spots	generic	13	red	90	True	sapers
22	3838	truth_conditions	bare	tails	generic	14	orange	10	True	zorbs
22	4438	truth_conditions	danger/distinct	tails	generic	15	purple	70	True	taifels
22	5372	truth_conditions	nondistinctive	scales	generic	16	yellow	50	True	dorbs
22	5281	truth_conditions	nondistinctive	fur	generic	17	copper	50	True	kweps
22	2583	truth_conditions	bare	shells	generic	18	green	70	True	moxes
22	2366	truth_conditions	bare	stripes	generic	19	gold	90	True	daiths
22	14491	truth_conditions	danger/distinct	stripes	generic	20	copper	10	True	mooks
22	3999	truth_conditions	danger/distinct	teeth	generic	21	green	90	True	zoovs
22	3388	truth_conditions	nondistinctive	stripes	generic	22	silver	70	True	frams
22	25420	truth_conditions	bare	teeth	generic	23	pink	30	True	krivels
22	3061	truth_conditions	nondistinctive	tails	generic	24	green	70	True	trufts
22	7708	truth_conditions	danger/distinct	fur	generic	25	yellow	50	True	ollers
22	3278	truth_conditions	danger/distinct	scales	generic	26	blue	50	True	reesles
22	3803	truth_conditions	bare	fur	generic	27	silver	90	True	morseths
22	4651	truth_conditions	nondistinctive	ears	generic	28	orange	10	True	kazzes
22	8821	truth_conditions	danger/distinct	legs	generic	29	silver	30	True	ackles
23	6508	truth_conditions	bare	stripes	generic	0	gold	90	True	daiths
23	4969	truth_conditions	bare	tails	generic	1	orange	70	True	zorbs
23	2666	truth_conditions	bare	shells	generic	2	green	50	False	moxes
23	5092	truth_conditions	danger/distinct	feathers	generic	3	gold	90	True	plovs
23	3971	truth_conditions	nondistinctive	shells	generic	4	purple	50	False	javs
23	2766	truth_conditions	bare	teeth	generic	5	pink	30	False	krivels
23	4512	truth_conditions	danger/distinct	shells	generic	6	orange	30	False	luzaks
23	3153	truth_conditions	danger/distinct	spots	generic	7	red	70	True	sapers
23	4016	truth_conditions	nondistinctive	scales	generic	8	yellow	50	False	dorbs
23	2109	truth_conditions	danger/distinct	fur	generic	9	yellow	50	False	ollers
23	1189	truth_conditions	nondistinctive	fur	generic	10	copper	30	False	kweps
23	1805	truth_conditions	nondistinctive	teeth	generic	11	blue	70	True	thups
23	1355	truth_conditions	bare	legs	generic	12	yellow	90	True	ludinos
23	1275	truth_conditions	danger/distinct	ears	generic	13	pink	90	True	elleps
23	2751	truth_conditions	nondistinctive	ears	generic	14	orange	10	False	kazzes
23	2007	truth_conditions	nondistinctive	stripes	generic	15	silver	70	True	frams
23	1572	truth_conditions	danger/distinct	teeth	generic	16	green	30	False	zoovs
23	32959	truth_conditions	nondistinctive	legs	generic	17	pink	90	True	feps
23	1649	truth_conditions	bare	fur	generic	18	silver	10	False	morseths
23	1143	truth_conditions	bare	ears	generic	19	blue	10	False	cheebas
23	1208	truth_conditions	bare	scales	generic	20	red	70	True	blins
23	1700	truth_conditions	danger/distinct	legs	generic	21	silver	70	True	ackles
23	1367	truth_conditions	nondistinctive	tails	generic	22	green	90	True	trufts
23	1653	truth_conditions	bare	feathers	generic	23	purple	50	False	lorches
23	1372	truth_conditions	nondistinctive	feathers	generic	24	red	10	False	noobs
23	1377	truth_conditions	nondistinctive	spots	generic	25	gold	30	False	stups
23	1190	truth_conditions	danger/distinct	scales	generic	26	blue	10	False	reesles
23	1269	truth_conditions	danger/distinct	stripes	generic	27	copper	50	False	mooks
23	1166	truth_conditions	danger/distinct	tails	generic	28	purple	10	False	taifels
23	1235	truth_conditions	bare	spots	generic	29	copper	30	False	glippets
24	5597	truth_conditions	bare	tails	generic	0	orange	70	False	zorbs
24	4367	truth_conditions	danger/distinct	feathers	generic	1	gold	70	True	plovs
24	4067	truth_conditions	nondistinctive	tails	generic	2	green	10	False	trufts
24	4018	truth_conditions	nondistinctive	teeth	generic	3	blue	70	True	thups
24	2763	truth_conditions	nondistinctive	fur	generic	4	copper	50	False	kweps
24	3989	truth_conditions	bare	spots	generic	5	copper	90	False	glippets
24	9078	truth_conditions	bare	shells	generic	6	green	70	False	moxes
24	4072	truth_conditions	danger/distinct	teeth	generic	7	green	10	True	zoovs
24	3924	truth_conditions	bare	legs	generic	8	yellow	30	False	ludinos
24	4099	truth_conditions	danger/distinct	ears	generic	9	pink	70	True	elleps
24	2896	truth_conditions	bare	feathers	generic	10	purple	90	True	lorches
24	2488	truth_conditions	danger/distinct	shells	generic	11	orange	50	True	luzaks
24	2459	truth_conditions	bare	stripes	generic	12	gold	50	False	daiths
24	5253	truth_conditions	bare	scales	generic	13	red	10	False	blins
24	3276	truth_conditions	bare	fur	generic	14	silver	50	False	morseths
24	2497	truth_conditions	danger/distinct	stripes	generic	15	copper	90	True	mooks
24	3325	truth_conditions	bare	ears	generic	16	blue	30	False	cheebas
24	3410	truth_conditions	nondistinctive	shells	generic	17	purple	10	False	javs
24	2231	truth_conditions	nondistinctive	spots	generic	18	gold	30	False	stups
24	3277	truth_conditions	nondistinctive	ears	generic	19	orange	70	False	kazzes
24	2363	truth_conditions	danger/distinct	legs	generic	20	silver	30	True	ackles
24	3234	truth_conditions	danger/distinct	scales	generic	21	blue	90	True	reesles
24	3650	truth_conditions	nondistinctive	stripes	generic	22	silver	50	False	frams
24	5197	truth_conditions	danger/distinct	spots	generic	23	red	10	True	sapers
24	3278	truth_conditions	danger/distinct	fur	generic	24	yellow	30	True	ollers
24	2107	truth_conditions	bare	teeth	generic	25	pink	10	False	krivels
24	3020	truth_conditions	nondistinctive	scales	generic	26	yellow	90	False	dorbs
24	4114	truth_conditions	nondistinctive	legs	generic	27	pink	90	False	feps
24	2809	truth_conditions	nondistinctive	feathers	generic	28	red	30	False	noobs
24	2786	truth_conditions	danger/distinct	tails	generic	29	purple	50	True	taifels
25	11198	truth_conditions	nondistinctive	legs	generic	0	pink	90	True	feps
25	4383	truth_conditions	bare	teeth	generic	1	pink	50	True	krivels
25	5910	truth_conditions	nondistinctive	ears	generic	2	orange	70	True	kazzes
25	4039	truth_conditions	bare	tails	generic	3	orange	70	True	zorbs
25	7909	truth_conditions	danger/distinct	spots	generic	4	red	10	True	sapers
25	7030	truth_conditions	nondistinctive	spots	generic	5	gold	30	True	stups
25	6214	truth_conditions	danger/distinct	stripes	generic	6	copper	90	True	mooks
25	3833	truth_conditions	danger/distinct	tails	generic	7	purple	50	True	taifels
25	4701	truth_conditions	bare	legs	generic	8	yellow	50	True	ludinos
25	4007	truth_conditions	bare	scales	generic	9	red	90	True	blins
25	2727	truth_conditions	bare	feathers	generic	10	purple	10	True	lorches
25	4296	truth_conditions	nondistinctive	fur	generic	11	copper	50	True	kweps
25	4319	truth_conditions	nondistinctive	teeth	generic	12	blue	90	True	thups
25	2928	truth_conditions	bare	spots	generic	13	copper	90	True	glippets
25	3893	truth_conditions	bare	shells	generic	14	green	70	True	moxes
25	4217	truth_conditions	danger/distinct	legs	generic	15	silver	50	True	ackles
25	3325	truth_conditions	bare	ears	generic	16	blue	10	True	cheebas
25	5031	truth_conditions	danger/distinct	scales	generic	17	blue	10	True	reesles
25	3623	truth_conditions	nondistinctive	scales	generic	18	yellow	10	True	dorbs
25	3671	truth_conditions	danger/distinct	shells	generic	19	orange	70	True	luzaks
25	4455	truth_conditions	danger/distinct	feathers	generic	20	gold	30	True	plovs
25	5217	truth_conditions	nondistinctive	tails	generic	21	green	10	True	trufts
25	3354	truth_conditions	danger/distinct	teeth	generic	22	green	30	True	zoovs
25	3699	truth_conditions	nondistinctive	stripes	generic	23	silver	70	True	frams
25	3437	truth_conditions	danger/distinct	ears	generic	24	pink	90	True	elleps
25	2952	truth_conditions	bare	fur	generic	25	silver	30	True	morseths
25	2830	truth_conditions	bare	stripes	generic	26	gold	30	True	daiths
25	5480	truth_conditions	nondistinctive	feathers	generic	27	red	30	True	noobs
25	2983	truth_conditions	nondistinctive	shells	generic	28	purple	50	True	javs
25	3256	truth_conditions	danger/distinct	fur	generic	29	yellow	70	True	ollers
26	10854	truth_conditions	bare	feathers	generic	0	purple	30	False	lorches
26	3909	truth_conditions	bare	spots	generic	1	copper	10	False	glippets
26	8992	truth_conditions	nondistinctive	ears	generic	2	orange	30	False	kazzes
26	9840	truth_conditions	danger/distinct	scales	generic	3	blue	70	False	reesles
26	8563	truth_conditions	nondistinctive	spots	generic	4	gold	90	False	stups
26	4783	truth_conditions	bare	fur	generic	5	silver	50	False	morseths
26	9489	truth_conditions	danger/distinct	teeth	generic	6	green	70	False	zoovs
26	7235	truth_conditions	nondistinctive	feathers	generic	7	red	30	False	noobs
26	5017	truth_conditions	bare	legs	generic	8	yellow	90	False	ludinos
26	12256	truth_conditions	danger/distinct	fur	generic	9	yellow	10	False	ollers
26	2680	truth_conditions	bare	shells	generic	10	green	70	False	moxes
26	11387	truth_conditions	danger/distinct	ears	generic	11	pink	10	False	elleps
26	6546	truth_conditions	nondistinctive	teeth	generic	12	blue	50	False	thups
26	11630	truth_conditions	danger/distinct	spots	generic	13	red	90	False	sapers
26	6205	truth_conditions	nondistinctive	stripes	generic	14	silver	10	False	frams
26	3344	truth_conditions	bare	stripes	generic	15	gold	90	False	daiths
26	12045	truth_conditions	danger/distinct	stripes	generic	16	copper	90	False	mooks
26	7964	truth_conditions	danger/distinct	feathers	generic	17	gold	50	False	plovs
26	7549	truth_conditions	danger/distinct	shells	generic	18	orange	30	False	luzaks
26	5588	truth_conditions	nondistinctive	tails	generic	19	green	70	False	trufts
26	3697	truth_conditions	bare	tails	generic	20	orange	10	False	zorbs
26	6602	truth_conditions	danger/distinct	tails	generic	21	purple	30	False	taifels
26	2760	truth_conditions	bare	teeth	generic	22	pink	70	False	krivels
26	6370	truth_conditions	nondistinctive	legs	generic	23	pink	50	False	feps
26	4543	truth_conditions	bare	ears	generic	24	blue	50	False	cheebas
26	7176	truth_conditions	nondistinctive	fur	generic	25	copper	10	False	kweps
26	1954	truth_conditions	bare	scales	generic	26	red	30	False	blins
26	4906	truth_conditions	nondistinctive	scales	generic	27	yellow	90	False	dorbs
26	5311	truth_conditions	danger/distinct	legs	generic	28	silver	50	False	ackles
26	2825	truth_conditions	nondistinctive	shells	generic	29	purple	70	False	javs
27	18034	truth_conditions	bare	stripes	generic	0	gold	30	True	daiths
27	17210	truth_conditions	nondistinctive	stripes	generic	1	silver	90	True	frams
27	9919	truth_conditions	danger/distinct	tails	generic	2	purple	70	True	taifels
27	12808	truth_conditions	danger/distinct	scales	generic	3	blue	10	True	reesles
27	21591	truth_conditions	nondistinctive	legs	generic	4	pink	10	True	feps
27	7917	truth_conditions	danger/distinct	teeth	generic	5	green	50	True	zoovs
27	6986	truth_conditions	bare	legs	generic	6	yellow	10	True	ludinos
27	15305	truth_conditions	nondistinctive	teeth	generic	7	blue	50	True	thups
27	6370	truth_conditions	bare	scales	generic	8	red	90	True	blins
27	7319	truth_conditions	nondistinctive	tails	generic	9	green	70	True	trufts
27	9347	truth_conditions	nondistinctive	scales	generic	10	yellow	90	True	dorbs
27	6030	truth_conditions	bare	tails	generic	11	orange	70	True	zorbs
27	15636	truth_conditions	nondistinctive	feathers	generic	12	red	30	True	noobs
27	18349	truth_conditions	nondistinctive	fur	generic	13	copper	70	True	kweps
27	226138	truth_conditions	danger/distinct	stripes	generic	14	copper	50	True	mooks
27	6760	truth_conditions	bare	teeth	generic	15	pink	50	True	krivels
27	10587	truth_conditions	bare	ears	generic	16	blue	90	True	cheebas
27	8282	truth_conditions	danger/distinct	legs	generic	17	silver	30	True	ackles
27	6101	truth_conditions	bare	shells	generic	18	green	10	True	moxes
27	10651	truth_conditions	nondistinctive	shells	generic	19	purple	30	True	javs
27	16930	truth_conditions	danger/distinct	ears	generic	20	pink	70	True	elleps
27	22567	truth_conditions	danger/distinct	shells	generic	21	orange	90	True	luzaks
27	10517	truth_conditions	danger/distinct	spots	generic	22	red	90	True	sapers
27	6483	truth_conditions	bare	fur	generic	23	silver	30	True	morseths
27	6167	truth_conditions	bare	spots	generic	24	copper	70	True	glippets
27	15190	truth_conditions	danger/distinct	fur	generic	25	yellow	30	True	ollers
27	7892	truth_conditions	nondistinctive	ears	generic	26	orange	50	True	kazzes
27	7805	truth_conditions	danger/distinct	feathers	generic	27	gold	10	True	plovs
27	13219	truth_conditions	nondistinctive	spots	generic	28	gold	10	True	stups
27	6610	truth_conditions	bare	feathers	generic	29	purple	50	True	lorches
28	8244	truth_conditions	nondistinctive	feathers	generic	0	red	10	True	noobs
28	13246	truth_conditions	danger/distinct	stripes	generic	1	copper	30	True	mooks
28	7244	truth_conditions	nondistinctive	tails	generic	2	green	70	True	trufts
28	4222	truth_conditions	bare	scales	generic	3	red	90	True	blins
28	4160	truth_conditions	bare	fur	generic	4	silver	50	True	morseths
28	7601	truth_conditions	nondistinctive	shells	generic	5	purple	90	True	javs
28	9747	truth_conditions	nondistinctive	legs	generic	6	pink	30	True	feps
28	3031	truth_conditions	bare	legs	generic	7	yellow	90	True	ludinos
28	6545	truth_conditions	danger/distinct	spots	generic	8	red	50	True	sapers
28	4225	truth_conditions	nondistinctive	spots	generic	9	gold	50	True	stups
28	4407	truth_conditions	danger/distinct	shells	generic	10	orange	50	True	luzaks
28	10676	truth_conditions	nondistinctive	scales	generic	11	yellow	10	False	dorbs
28	3478	truth_conditions	danger/distinct	teeth	generic	12	green	70	True	zoovs
28	3034	truth_conditions	bare	shells	generic	13	green	10	False	moxes
28	2895	truth_conditions	danger/distinct	fur	generic	14	yellow	10	False	ollers
28	4762	truth_conditions	bare	spots	generic	15	copper	30	True	glippets
28	3447	truth_conditions	danger/distinct	legs	generic	16	silver	90	True	ackles
28	5170	truth_conditions	danger/distinct	scales	generic	17	blue	90	True	reesles
28	2112	truth_conditions	nondistinctive	ears	generic	18	orange	90	True	kazzes
28	2159	truth_conditions	bare	stripes	generic	19	gold	30	True	daiths
28	2615	truth_conditions	bare	teeth	generic	20	pink	50	True	krivels
28	2199	truth_conditions	bare	tails	generic	21	orange	70	True	zorbs
28	1833	truth_conditions	bare	feathers	generic	22	purple	10	False	lorches
28	1963	truth_conditions	nondistinctive	fur	generic	23	copper	50	True	kweps
28	2564	truth_conditions	danger/distinct	tails	generic	24	purple	30	True	taifels
28	2673	truth_conditions	danger/distinct	ears	generic	25	pink	70	True	elleps
28	2281	truth_conditions	nondistinctive	teeth	generic	26	blue	70	True	thups
28	2154	truth_conditions	danger/distinct	feathers	generic	27	gold	10	False	plovs
28	1920	truth_conditions	bare	ears	generic	28	blue	70	True	cheebas
28	3109	truth_conditions	nondistinctive	stripes	generic	29	silver	30	True	frams
29	6549	truth_conditions	bare	scales	generic	0	red	90	True	blins
29	161203	truth_conditions	nondistinctive	teeth	generic	1	blue	90	True	thups
29	4809	truth_conditions	nondistinctive	fur	generic	2	copper	10	True	kweps
29	3367	truth_conditions	bare	fur	generic	3	silver	10	True	morseths
29	1719	truth_conditions	bare	teeth	generic	4	pink	10	True	krivels
29	2024	truth_conditions	danger/distinct	teeth	generic	5	green	50	True	zoovs
29	3527	truth_conditions	nondistinctive	feathers	generic	6	red	30	True	noobs
29	2527	truth_conditions	bare	shells	generic	7	green	50	True	moxes
29	3152	truth_conditions	nondistinctive	scales	generic	8	yellow	70	True	dorbs
29	4568	truth_conditions	danger/distinct	ears	generic	9	pink	90	True	elleps
29	3024	truth_conditions	danger/distinct	shells	generic	10	orange	70	True	luzaks
29	2880	truth_conditions	danger/distinct	spots	generic	11	red	70	True	sapers
29	2375	truth_conditions	bare	stripes	generic	12	gold	30	True	daiths
29	2727	truth_conditions	bare	tails	generic	13	orange	70	True	zorbs
29	1577	truth_conditions	nondistinctive	ears	generic	14	orange	30	True	kazzes
29	1775	truth_conditions	bare	ears	generic	15	blue	70	True	cheebas
29	2676	truth_conditions	danger/distinct	tails	generic	16	purple	90	True	taifels
29	2008	truth_conditions	bare	legs	generic	17	yellow	50	True	ludinos
29	2296	truth_conditions	nondistinctive	shells	generic	18	purple	50	True	javs
29	2343	truth_conditions	danger/distinct	stripes	generic	19	copper	30	True	mooks
29	1991	truth_conditions	bare	feathers	generic	20	purple	90	True	lorches
29	4208	truth_conditions	danger/distinct	scales	generic	21	blue	30	True	reesles
29	1984	truth_conditions	bare	spots	generic	22	copper	30	True	glippets
29	3839	truth_conditions	danger/distinct	legs	generic	23	silver	10	True	ackles
29	1584	truth_conditions	nondistinctive	legs	generic	24	pink	50	True	feps
29	2160	truth_conditions	nondistinctive	spots	generic	25	gold	90	True	stups
29	2039	truth_conditions	danger/distinct	feathers	generic	26	gold	50	True	plovs
29	4271	truth_conditions	danger/distinct	fur	generic	27	yellow	10	True	ollers
29	2241	truth_conditions	nondistinctive	tails	generic	28	green	10	True	trufts
29	1312	truth_conditions	nondistinctive	stripes	generic	29	silver	70	True	frams
30	8834	truth_conditions	nondistinctive	stripes	generic	0	silver	90	True	frams
30	9525	truth_conditions	nondistinctive	shells	generic	1	purple	10	False	javs
30	6278	truth_conditions	bare	spots	generic	2	copper	10	False	glippets
30	6047	truth_conditions	danger/distinct	teeth	generic	3	green	50	True	zoovs
30	5000	truth_conditions	nondistinctive	spots	generic	4	gold	90	True	stups
30	3021	truth_conditions	danger/distinct	shells	generic	5	orange	30	True	luzaks
30	2873	truth_conditions	nondistinctive	teeth	generic	6	blue	30	True	thups
30	1807	truth_conditions	bare	legs	generic	7	yellow	90	True	ludinos
30	2552	truth_conditions	danger/distinct	fur	generic	8	yellow	70	True	ollers
30	3074	truth_conditions	nondistinctive	feathers	generic	9	red	10	True	noobs
30	1645	truth_conditions	nondistinctive	legs	generic	10	pink	30	True	feps
30	3809	truth_conditions	danger/distinct	legs	generic	11	silver	30	True	ackles
30	2117	truth_conditions	nondistinctive	ears	generic	12	orange	70	True	kazzes
30	1935	truth_conditions	bare	feathers	generic	13	purple	90	True	lorches
30	2848	truth_conditions	bare	teeth	generic	14	pink	30	True	krivels
30	1648	truth_conditions	bare	ears	generic	15	blue	50	True	cheebas
30	2406	truth_conditions	nondistinctive	scales	generic	16	yellow	50	True	dorbs
30	1848	truth_conditions	bare	fur	generic	17	silver	70	True	morseths
30	2391	truth_conditions	bare	scales	generic	18	red	30	True	blins
30	6178	truth_conditions	danger/distinct	spots	generic	19	red	70	True	sapers
30	4228	truth_conditions	danger/distinct	feathers	generic	20	gold	90	True	plovs
30	2144	truth_conditions	bare	stripes	generic	21	gold	50	True	daiths
30	3961	truth_conditions	danger/distinct	stripes	generic	22	copper	10	True	mooks
30	2518	truth_conditions	nondistinctive	tails	generic	23	green	50	True	trufts
30	3519	truth_conditions	danger/distinct	scales	generic	24	blue	50	True	reesles
30	2311	truth_conditions	danger/distinct	ears	generic	25	pink	10	True	elleps
30	2826	truth_conditions	bare	shells	generic	26	green	70	True	moxes
30	2246	truth_conditions	bare	tails	generic	27	orange	10	True	zorbs
30	2615	truth_conditions	nondistinctive	fur	generic	28	copper	70	True	kweps
30	2032	truth_conditions	danger/distinct	tails	generic	29	purple	90	True	taifels
31	9756	truth_conditions	danger/distinct	shells	generic	0	orange	70	False	luzaks
31	4411	truth_conditions	bare	stripes	generic	1	gold	50	True	daiths
31	2995	truth_conditions	nondistinctive	feathers	generic	2	red	30	True	noobs
31	4503	truth_conditions	bare	feathers	generic	3	purple	30	True	lorches
31	5272	truth_conditions	nondistinctive	fur	generic	4	copper	70	True	kweps
31	3605	truth_conditions	danger/distinct	feathers	generic	5	gold	50	True	plovs
31	1460	truth_conditions	danger/distinct	stripes	generic	6	copper	30	True	mooks
31	6493	truth_conditions	nondistinctive	stripes	generic	7	silver	70	True	frams
31	4824	truth_conditions	danger/distinct	scales	generic	8	blue	70	True	reesles
31	2192	truth_conditions	bare	spots	generic	9	copper	50	True	glippets
31	3791	truth_conditions	nondistinctive	spots	generic	10	gold	10	False	stups
31	3782	truth_conditions	bare	teeth	generic	11	pink	30	False	krivels
31	3278	truth_conditions	nondistinctive	scales	generic	12	yellow	10	False	dorbs
31	2273	truth_conditions	danger/distinct	teeth	generic	13	green	90	True	zoovs
31	2129	truth_conditions	nondistinctive	ears	generic	14	orange	90	True	kazzes
31	2776	truth_conditions	bare	fur	generic	15	silver	10	False	morseths
31	1935	truth_conditions	bare	shells	generic	16	green	10	False	moxes
31	2576	truth_conditions	danger/distinct	fur	generic	17	yellow	10	False	ollers
31	1624	truth_conditions	nondistinctive	shells	generic	18	purple	90	True	javs
31	1807	truth_conditions	nondistinctive	tails	generic	19	green	50	True	trufts
31	3806	truth_conditions	danger/distinct	spots	generic	20	red	10	False	sapers
31	1617	truth_conditions	nondistinctive	teeth	generic	21	blue	50	True	thups
31	2199	truth_conditions	bare	tails	generic	22	orange	70	True	zorbs
31	2022	truth_conditions	bare	ears	generic	23	blue	90	True	cheebas
31	2111	truth_conditions	nondistinctive	legs	generic	24	pink	30	False	feps
31	2326	truth_conditions	danger/distinct	ears	generic	25	pink	30	False	elleps
31	1415	truth_conditions	bare	scales	generic	26	red	90	True	blins
31	1136	truth_conditions	bare	legs	generic	27	yellow	70	True	ludinos
31	2266	truth_conditions	danger/distinct	tails	generic	28	purple	50	True	taifels
31	1209	truth_conditions	danger/distinct	legs	generic	29	silver	90	True	ackles
32	79214	truth_conditions	bare	stripes	generic	0	gold	70	True	daiths
32	18631	truth_conditions	danger/distinct	ears	generic	1	pink	30	True	elleps
32	13929	truth_conditions	bare	legs	generic	2	yellow	50	False	ludinos
32	8487	truth_conditions	bare	scales	generic	3	red	10	True	blins
32	12447	truth_conditions	nondistinctive	tails	generic	4	green	50	True	trufts
32	4875	truth_conditions	bare	shells	generic	5	green	90	True	moxes
32	5240	truth_conditions	nondistinctive	scales	generic	6	yellow	90	True	dorbs
32	4714	truth_conditions	bare	tails	generic	7	orange	10	True	zorbs
32	8700	truth_conditions	nondistinctive	fur	generic	8	copper	90	True	kweps
32	4259	truth_conditions	bare	teeth	generic	9	pink	30	True	krivels
32	4698	truth_conditions	nondistinctive	teeth	generic	10	blue	30	True	thups
32	4898	truth_conditions	danger/distinct	spots	generic	11	red	90	True	sapers
32	5005	truth_conditions	nondistinctive	stripes	generic	12	silver	70	True	frams
32	12063	truth_conditions	nondistinctive	legs	generic	13	pink	10	True	feps
32	3815	truth_conditions	danger/distinct	legs	generic	14	silver	70	True	ackles
32	4024	truth_conditions	bare	spots	generic	15	copper	30	True	glippets
32	5001	truth_conditions	danger/distinct	fur	generic	16	yellow	90	True	ollers
32	4090	truth_conditions	bare	ears	generic	17	blue	90	True	cheebas
32	4790	truth_conditions	nondistinctive	feathers	generic	18	red	10	True	noobs
32	3768	truth_conditions	nondistinctive	shells	generic	19	purple	50	True	javs
32	4286	truth_conditions	bare	feathers	generic	20	purple	50	True	lorches
32	3229	truth_conditions	bare	fur	generic	21	silver	70	True	morseths
32	5438	truth_conditions	danger/distinct	teeth	generic	22	green	10	True	zoovs
32	2963	truth_conditions	danger/distinct	scales	generic	23	blue	70	True	reesles
32	2804	truth_conditions	danger/distinct	feathers	generic	24	gold	50	True	plovs
32	3716	truth_conditions	nondistinctive	ears	generic	25	orange	30	True	kazzes
32	2945	truth_conditions	danger/distinct	shells	generic	26	orange	10	True	luzaks
32	3405	truth_conditions	danger/distinct	stripes	generic	27	copper	30	True	mooks
32	3205	truth_conditions	nondistinctive	spots	generic	28	gold	70	True	stups
32	4706	truth_conditions	danger/distinct	tails	generic	29	purple	50	True	taifels
33	3323	truth_conditions	bare	tails	generic	0	orange	50	True	zorbs
33	2751	truth_conditions	bare	spots	generic	1	copper	10	True	glippets
33	6331	truth_conditions	danger/distinct	fur	generic	2	yellow	70	True	ollers
33	3697	truth_conditions	danger/distinct	stripes	generic	3	copper	50	True	mooks
33	3670	truth_conditions	nondistinctive	scales	generic	4	yellow	90	True	dorbs
33	3607	truth_conditions	danger/distinct	scales	generic	5	blue	90	True	reesles
33	2568	truth_conditions	bare	stripes	generic	6	gold	70	True	daiths
33	3617	truth_conditions	nondistinctive	stripes	generic	7	silver	10	True	frams
33	2990	truth_conditions	danger/distinct	shells	generic	8	orange	30	True	luzaks
33	2848	truth_conditions	danger/distinct	feathers	generic	9	gold	70	True	plovs
33	2711	truth_conditions	nondistinctive	tails	generic	10	green	50	True	trufts
33	1936	truth_conditions	bare	legs	generic	11	yellow	30	True	ludinos
33	3792	truth_conditions	nondistinctive	ears	generic	12	orange	30	True	kazzes
33	1965	truth_conditions	bare	fur	generic	13	silver	50	True	morseths
33	3480	truth_conditions	danger/distinct	spots	generic	14	red	10	True	sapers
33	1592	truth_conditions	bare	scales	generic	15	red	90	True	blins
33	2264	truth_conditions	danger/distinct	teeth	generic	16	green	10	True	zoovs
33	1623	truth_conditions	bare	teeth	generic	17	pink	10	True	krivels
33	2440	truth_conditions	nondistinctive	teeth	generic	18	blue	50	True	thups
33	1797	truth_conditions	nondistinctive	legs	generic	19	pink	70	True	feps
33	2147	truth_conditions	bare	ears	generic	20	blue	70	True	cheebas
33	2790	truth_conditions	nondistinctive	spots	generic	21	gold	70	True	stups
33	2726	truth_conditions	danger/distinct	tails	generic	22	purple	30	True	taifels
33	2535	truth_conditions	danger/distinct	legs	generic	23	silver	90	True	ackles
33	2864	truth_conditions	nondistinctive	feathers	generic	24	red	30	True	noobs
33	2408	truth_conditions	bare	shells	generic	25	green	90	True	moxes
33	3144	truth_conditions	nondistinctive	shells	generic	26	purple	90	True	javs
33	2343	truth_conditions	danger/distinct	ears	generic	27	pink	50	True	elleps
33	1560	truth_conditions	bare	feathers	generic	28	purple	30	True	lorches
33	2792	truth_conditions	nondistinctive	fur	generic	29	copper	10	True	kweps
34	11118	truth_conditions	nondistinctive	fur	generic	0	copper	50	False	kweps
34	7980	truth_conditions	nondistinctive	ears	generic	1	orange	10	False	kazzes
34	8033	truth_conditions	nondistinctive	teeth	generic	2	blue	70	False	thups
34	7434	truth_conditions	danger/distinct	legs	generic	3	silver	90	True	ackles
34	4565	truth_conditions	danger/distinct	stripes	generic	4	copper	30	False	mooks
34	5660	truth_conditions	danger/distinct	feathers	generic	5	gold	10	False	plovs
34	5701	truth_conditions	danger/distinct	fur	generic	6	yellow	30	False	ollers
34	4432	truth_conditions	nondistinctive	shells	generic	7	purple	70	False	javs
34	6169	truth_conditions	bare	legs	generic	8	yellow	50	False	ludinos
34	3968	truth_conditions	danger/distinct	ears	generic	9	pink	70	True	elleps
34	5128	truth_conditions	bare	fur	generic	10	silver	30	False	morseths
34	7483	truth_conditions	danger/distinct	tails	generic	11	purple	50	False	taifels
34	8565	truth_conditions	danger/distinct	shells	generic	12	orange	90	False	luzaks
34	2643	truth_conditions	nondistinctive	legs	generic	13	pink	30	False	feps
34	3883	truth_conditions	bare	spots	generic	14	copper	90	False	glippets
34	2301	truth_conditions	nondistinctive	spots	generic	15	gold	10	False	stups
34	1995	truth_conditions	bare	feathers	generic	16	purple	90	False	lorches
34	2874	truth_conditions	danger/distinct	spots	generic	17	red	10	False	sapers
34	2183	truth_conditions	bare	teeth	generic	18	pink	10	False	krivels
34	1941	truth_conditions	bare	scales	generic	19	red	30	False	blins
34	3166	truth_conditions	nondistinctive	feathers	generic	20	red	90	False	noobs
34	1577	truth_conditions	danger/distinct	teeth	generic	21	green	70	False	zoovs
34	1781	truth_conditions	nondistinctive	scales	generic	22	yellow	50	False	dorbs
34	1833	truth_conditions	bare	shells	generic	23	green	10	False	moxes
34	1632	truth_conditions	nondistinctive	tails	generic	24	green	90	False	trufts
34	1871	truth_conditions	bare	ears	generic	25	blue	70	False	cheebas
34	1408	truth_conditions	bare	stripes	generic	26	gold	50	False	daiths
34	1741	truth_conditions	nondistinctive	stripes	generic	27	silver	30	False	frams
34	2096	truth_conditions	danger/distinct	scales	generic	28	blue	50	False	reesles
34	2154	truth_conditions	bare	tails	generic	29	orange	70	False	zorbs
35	13548	truth_conditions	nondistinctive	teeth	generic	0	blue	30	False	thups
35	30057	truth_conditions	nondistinctive	shells	generic	1	purple	90	True	javs
35	6781	truth_conditions	bare	shells	generic	2	green	90	True	moxes
35	14646	truth_conditions	nondistinctive	legs	generic	3	pink	10	False	feps
35	12686	truth_conditions	danger/distinct	legs	generic	4	silver	50	True	ackles
35	9071	truth_conditions	bare	scales	generic	5	red	10	False	blins
35	5403	truth_conditions	bare	teeth	generic	6	pink	90	True	krivels
35	14444	truth_conditions	nondistinctive	fur	generic	7	copper	70	True	kweps
35	6138	truth_conditions	bare	tails	generic	8	orange	70	True	zorbs
35	13846	truth_conditions	danger/distinct	shells	generic	9	orange	10	False	luzaks
35	5448	truth_conditions	bare	feathers	generic	10	purple	50	True	lorches
35	15833	truth_conditions	danger/distinct	spots	generic	11	red	30	False	sapers
35	12826	truth_conditions	danger/distinct	scales	generic	12	blue	70	True	reesles
35	5526	truth_conditions	bare	stripes	generic	13	gold	30	False	daiths
35	5504	truth_conditions	bare	fur	generic	14	silver	70	True	morseths
35	6181	truth_conditions	bare	spots	generic	15	copper	30	False	glippets
35	15053	truth_conditions	nondistinctive	spots	generic	16	gold	30	False	stups
35	11444	truth_conditions	nondistinctive	scales	generic	17	yellow	50	True	dorbs
35	11255	truth_conditions	danger/distinct	teeth	generic	18	green	10	False	zoovs
35	17744	truth_conditions	nondistinctive	tails	generic	19	green	70	True	trufts
35	18150	truth_conditions	danger/distinct	stripes	generic	20	copper	90	True	mooks
35	10776	truth_conditions	bare	ears	generic	21	blue	10	False	cheebas
35	15120	truth_conditions	danger/distinct	fur	generic	22	yellow	50	True	ollers
35	11753	truth_conditions	nondistinctive	stripes	generic	23	silver	10	False	frams
35	13773	truth_conditions	nondistinctive	feathers	generic	24	red	90	True	noobs
35	17056	truth_conditions	danger/distinct	feathers	generic	25	gold	30	False	plovs
35	6776	truth_conditions	bare	legs	generic	26	yellow	50	True	ludinos
35	20408	truth_conditions	nondistinctive	ears	generic	27	orange	50	True	kazzes
35	15321	truth_conditions	danger/distinct	ears	generic	28	pink	90	True	elleps
35	17327	truth_conditions	danger/distinct	tails	generic	29	purple	70	True	taifels
36	115232	truth_conditions	danger/distinct	ears	generic	0	pink	50	False	elleps
36	9387	truth_conditions	nondistinctive	legs	generic	1	pink	30	False	feps
36	14605	truth_conditions	danger/distinct	spots	generic	2	red	70	True	sapers
36	7090	truth_conditions	danger/distinct	feathers	generic	3	gold	70	True	plovs
36	5877	truth_conditions	bare	ears	generic	4	blue	70	True	cheebas
36	57703	truth_conditions	bare	tails	generic	5	orange	30	False	zorbs
36	11112	truth_conditions	danger/distinct	teeth	generic	6	green	90	True	zoovs
36	9856	truth_conditions	danger/distinct	tails	generic	7	purple	90	True	taifels
36	12475	truth_conditions	nondistinctive	feathers	generic	8	red	50	False	noobs
36	10902	truth_conditions	danger/distinct	scales	generic	9	blue	10	False	reesles
36	12418	truth_conditions	nondistinctive	spots	generic	10	gold	90	True	stups
36	11602	truth_conditions	nondistinctive	fur	generic	11	copper	70	True	kweps
36	7797	truth_conditions	bare	legs	generic	12	yellow	50	False	ludinos
36	14381	truth_conditions	danger/distinct	shells	generic	13	orange	30	False	luzaks
36	11904	truth_conditions	bare	teeth	generic	14	pink	90	True	krivels
36	10759	truth_conditions	nondistinctive	shells	generic	15	purple	10	False	javs
36	15312	truth_conditions	nondistinctive	ears	generic	16	orange	90	True	kazzes
36	6750	truth_conditions	bare	fur	generic	17	silver	90	True	morseths
36	4123	truth_conditions	bare	stripes	generic	18	gold	70	True	daiths
36	3062	truth_conditions	bare	scales	generic	19	red	50	False	blins
36	12558	truth_conditions	danger/distinct	stripes	generic	20	copper	10	False	mooks
36	6011	truth_conditions	bare	feathers	generic	21	purple	10	False	lorches
36	3810	truth_conditions	bare	shells	generic	22	green	30	False	moxes
36	7134	truth_conditions	nondistinctive	teeth	generic	23	blue	70	True	thups
36	8769	truth_conditions	bare	spots	generic	24	copper	10	False	glippets
36	7051	truth_conditions	nondistinctive	tails	generic	25	green	50	False	trufts
36	8250	truth_conditions	danger/distinct	legs	generic	26	silver	30	False	ackles
36	6808	truth_conditions	nondistinctive	stripes	generic	27	silver	30	False	frams
36	5404	truth_conditions	nondistinctive	scales	generic	28	yellow	10	False	dorbs
36	12527	truth_conditions	danger/distinct	fur	generic	29	yellow	50	False	ollers
37	14868	truth_conditions	nondistinctive	shells	generic	0	purple	10	True	javs
37	12779	truth_conditions	bare	teeth	generic	1	pink	10	True	krivels
37	14223	truth_conditions	danger/distinct	tails	generic	2	purple	30	True	taifels
37	9650	truth_conditions	danger/distinct	fur	generic	3	yellow	10	True	ollers
37	13690	truth_conditions	danger/distinct	legs	generic	4	silver	50	True	ackles
37	4713	truth_conditions	bare	spots	generic	5	copper	50	True	glippets
37	10849	truth_conditions	nondistinctive	fur	generic	6	copper	30	True	kweps
37	4507	truth_conditions	bare	fur	generic	7	silver	70	True	morseths
37	3999	truth_conditions	bare	ears	generic	8	blue	90	True	cheebas
37	3211	truth_conditions	bare	tails	generic	9	orange	30	True	zorbs
37	12274	truth_conditions	danger/distinct	scales	generic	10	blue	90	True	reesles
37	7295	truth_conditions	danger/distinct	teeth	generic	11	green	90	True	zoovs
37	4769	truth_conditions	danger/distinct	feathers	generic	12	gold	10	True	plovs
37	4678	truth_conditions	bare	feathers	generic	13	purple	30	True	lorches
37	3507	truth_conditions	bare	stripes	generic	14	gold	90	True	daiths
37	3845	truth_conditions	bare	legs	generic	15	yellow	70	True	ludinos
37	4484	truth_conditions	danger/distinct	ears	generic	16	pink	50	True	elleps
37	9075	truth_conditions	nondistinctive	feathers	generic	17	red	10	True	noobs
37	5392	truth_conditions	danger/distinct	spots	generic	18	red	70	True	sapers
37	6319	truth_conditions	nondistinctive	stripes	generic	19	silver	70	True	frams
37	4226	truth_conditions	nondistinctive	teeth	generic	20	blue	50	True	thups
37	16687	truth_conditions	nondistinctive	ears	generic	21	orange	50	True	kazzes
37	6263	truth_conditions	danger/distinct	shells	generic	22	orange	30	True	luzaks
37	4298	truth_conditions	nondistinctive	legs	generic	23	pink	70	True	feps
37	7464	truth_conditions	nondistinctive	scales	generic	24	yellow	90	True	dorbs
37	8989	truth_conditions	nondistinctive	spots	generic	25	gold	30	True	stups
37	4410	truth_conditions	bare	shells	generic	26	green	50	True	moxes
37	6537	truth_conditions	danger/distinct	stripes	generic	27	copper	70	True	mooks
37	3887	truth_conditions	bare	scales	generic	28	red	10	True	blins
37	11108	truth_conditions	nondistinctive	tails	generic	29	green	90	True	trufts
38	6305	truth_conditions	danger/distinct	ears	generic	0	pink	70	True	elleps
38	12441	truth_conditions	danger/distinct	stripes	generic	1	copper	90	True	mooks
38	16446	truth_conditions	bare	stripes	generic	2	gold	30	True	daiths
38	7186	truth_conditions	nondistinctive	teeth	generic	3	blue	10	False	thups
38	2428	truth_conditions	bare	shells	generic	4	green	90	True	moxes
38	5285	truth_conditions	nondistinctive	legs	generic	5	pink	90	True	feps
38	6967	truth_conditions	danger/distinct	legs	generic	6	silver	30	False	ackles
38	2235	truth_conditions	bare	ears	generic	7	blue	90	True	cheebas
38	2035	truth_conditions	bare	fur	generic	8	silver	30	False	morseths
38	2292	truth_conditions	danger/distinct	spots	generic	9	red	70	True	sapers
38	1238	truth_conditions	nondistinctive	tails	generic	10	green	30	True	trufts
38	1087	truth_conditions	danger/distinct	fur	generic	11	yellow	90	True	ollers
38	2416	truth_conditions	bare	legs	generic	12	yellow	70	True	ludinos
38	1660	truth_conditions	danger/distinct	scales	generic	13	blue	10	True	reesles
38	2771	truth_conditions	bare	scales	generic	14	red	10	True	blins
38	5486	truth_conditions	danger/distinct	tails	generic	15	purple	10	True	taifels
38	2509	truth_conditions	nondistinctive	scales	generic	16	yellow	50	True	dorbs
38	2144	truth_conditions	danger/distinct	feathers	generic	17	gold	50	True	plovs
38	1497	truth_conditions	danger/distinct	shells	generic	18	orange	50	True	luzaks
38	1564	truth_conditions	bare	spots	generic	19	copper	50	True	glippets
38	1233	truth_conditions	bare	tails	generic	20	orange	70	True	zorbs
38	1044	truth_conditions	bare	teeth	generic	21	pink	50	True	krivels
38	2500	truth_conditions	nondistinctive	spots	generic	22	gold	50	True	stups
38	3537	truth_conditions	nondistinctive	stripes	generic	23	silver	70	True	frams
38	1519	truth_conditions	nondistinctive	ears	generic	24	orange	30	True	kazzes
38	1398	truth_conditions	danger/distinct	teeth	generic	25	green	30	True	zoovs
38	2500	truth_conditions	bare	feathers	generic	26	purple	10	False	lorches
38	2338	truth_conditions	nondistinctive	fur	generic	27	copper	10	False	kweps
38	1283	truth_conditions	nondistinctive	feathers	generic	28	red	90	True	noobs
38	1234	truth_conditions	nondistinctive	shells	generic	29	purple	70	True	javs
39	34898	truth_conditions	danger/distinct	tails	generic	0	purple	10	True	taifels
39	10771	truth_conditions	bare	scales	generic	1	red	70	True	blins
39	17181	truth_conditions	danger/distinct	shells	generic	2	orange	30	True	luzaks
39	7070	truth_conditions	bare	tails	generic	3	orange	90	True	zorbs
39	21829	truth_conditions	nondistinctive	stripes	generic	4	silver	90	True	frams
39	18671	truth_conditions	nondistinctive	ears	generic	5	orange	90	True	kazzes
39	11068	truth_conditions	nondistinctive	feathers	generic	6	red	70	True	noobs
39	16190	truth_conditions	danger/distinct	legs	generic	7	silver	50	True	ackles
39	18538	truth_conditions	nondistinctive	teeth	generic	8	blue	10	True	thups
39	12914	truth_conditions	nondistinctive	tails	generic	9	green	70	True	trufts
39	22670	truth_conditions	danger/distinct	ears	generic	10	pink	50	True	elleps
39	6942	truth_conditions	bare	spots	generic	11	copper	30	True	glippets
39	10561	truth_conditions	danger/distinct	fur	generic	12	yellow	90	True	ollers
39	11128	truth_conditions	bare	legs	generic	13	yellow	70	True	ludinos
39	5613	truth_conditions	bare	feathers	generic	14	purple	30	True	lorches
39	16820	truth_conditions	bare	ears	generic	15	blue	10	True	cheebas
39	33003	truth_conditions	danger/distinct	feathers	generic	16	gold	90	True	plovs
39	5154	truth_conditions	danger/distinct	teeth	generic	17	green	70	True	zoovs
39	5380	truth_conditions	bare	teeth	generic	18	pink	90	True	krivels
39	10604	truth_conditions	nondistinctive	scales	generic	19	yellow	30	True	dorbs
39	47425	truth_conditions	danger/distinct	spots	generic	20	red	70	True	sapers
39	4945	truth_conditions	bare	fur	generic	21	silver	50	True	morseths
39	276277	truth_conditions	nondistinctive	fur	generic	22	copper	30	True	kweps
39	6516	truth_conditions	bare	shells	generic	23	green	50	True	moxes
39	10664	truth_conditions	nondistinctive	spots	generic	24	gold	50	True	stups
39	10940	truth_conditions	nondistinctive	shells	generic	25	purple	50	True	javs
39	7644	truth_conditions	danger/distinct	scales	generic	26	blue	10	True	reesles
39	122396	truth_conditions	danger/distinct	stripes	generic	27	copper	30	True	mooks
39	18008	truth_conditions	nondistinctive	legs	generic	28	pink	10	True	feps
39	9802	truth_conditions	bare	stripes	generic	29	gold	10	True	daiths