workerid	rt	trial_type	stim_type	stim_part	stim_determiner	trialNum	stim_color	stim_prevalence	response	stim_category
0	10776	truth_conditions	danger-distinct	teeth	generic	0	green	50	True	zoovs
0	4979	truth_conditions	danger-distinct	tails	generic	1	green	70	False	trufts
0	2506	truth_conditions	nondistinctive	tails	generic	2	orange	30	False	zorbs
0	3144	truth_conditions	bare	ears	generic	3	orange	50	False	kazzes
0	4713	truth_conditions	nondistinctive	fur	generic	4	copper	70	False	kweps
0	2284	truth_conditions	nondistinctive	scales	generic	5	blue	30	False	reesles
0	1768	truth_conditions	bare	stripes	generic	6	silver	30	False	frams
0	2685	truth_conditions	bare	shells	generic	7	orange	30	False	luzaks
0	2244	truth_conditions	danger-distinct	ears	generic	8	pink	70	False	elleps
0	1171	truth_conditions	nondistinctive	legs	generic	9	silver	70	False	ackles
0	1654	truth_conditions	bare	scales	generic	10	yellow	10	False	dorbs
0	2848	truth_conditions	danger-distinct	legs	generic	11	pink	30	False	feps
0	3328	truth_conditions	nondistinctive	feathers	generic	12	gold	50	False	plovs
0	1803	truth_conditions	bare	feathers	generic	13	purple	10	False	lorches
0	1672	truth_conditions	danger-distinct	spots	generic	14	copper	70	False	glippets
0	2002	truth_conditions	bare	legs	generic	15	yellow	90	False	ludinos
0	1556	truth_conditions	danger-distinct	scales	generic	16	red	50	False	blins
0	1039	truth_conditions	bare	fur	generic	17	yellow	10	False	ollers
0	2636	truth_conditions	nondistinctive	spots	generic	18	gold	90	True	stups
0	1226	truth_conditions	nondistinctive	teeth	generic	19	blue	10	False	thups
0	1261	truth_conditions	nondistinctive	stripes	generic	20	gold	70	False	daiths
0	1566	truth_conditions	bare	tails	generic	21	purple	90	True	taifels
0	1357	truth_conditions	bare	teeth	generic	22	pink	30	False	krivels
0	980	truth_conditions	nondistinctive	shells	generic	23	purple	50	False	javs
0	1029	truth_conditions	nondistinctive	ears	generic	24	blue	50	False	cheebas
0	1587	truth_conditions	danger-distinct	shells	generic	25	green	10	False	moxes
0	1649	truth_conditions	bare	spots	generic	26	red	10	False	sapers
0	3038	truth_conditions	danger-distinct	feathers	generic	27	red	90	True	noobs
0	1063	truth_conditions	danger-distinct	stripes	generic	28	copper	90	True	mooks
0	1377	truth_conditions	danger-distinct	fur	generic	29	silver	90	True	morseths
1	11067	truth_conditions	bare	fur	generic	0	silver	10	False	morseths
1	17987	truth_conditions	danger-distinct	stripes	generic	1	gold	50	False	daiths
1	8087	truth_conditions	danger-distinct	spots	generic	2	red	50	False	sapers
1	4592	truth_conditions	nondistinctive	ears	generic	3	pink	30	False	elleps
1	3440	truth_conditions	bare	tails	generic	4	purple	90	True	taifels
1	3336	truth_conditions	bare	stripes	generic	5	copper	10	False	mooks
1	1888	truth_conditions	bare	teeth	generic	6	blue	50	False	thups
1	2657	truth_conditions	danger-distinct	scales	generic	7	red	90	True	blins
1	2248	truth_conditions	nondistinctive	shells	generic	8	green	50	False	moxes
1	1798	truth_conditions	bare	spots	generic	9	gold	30	False	stups
1	1681	truth_conditions	bare	legs	generic	10	yellow	70	True	ludinos
1	1916	truth_conditions	nondistinctive	legs	generic	11	silver	30	False	ackles
1	2804	truth_conditions	nondistinctive	fur	generic	12	yellow	70	True	ollers
1	2328	truth_conditions	danger-distinct	legs	generic	13	pink	10	False	feps
1	1864	truth_conditions	nondistinctive	tails	generic	14	orange	30	False	zorbs
1	1808	truth_conditions	bare	scales	generic	15	yellow	90	True	dorbs
1	2064	truth_conditions	bare	shells	generic	16	orange	90	True	luzaks
1	1927	truth_conditions	bare	ears	generic	17	blue	30	False	cheebas
1	1809	truth_conditions	nondistinctive	teeth	generic	18	green	50	False	zoovs
1	1529	truth_conditions	danger-distinct	feathers	generic	19	purple	90	True	lorches
1	1944	truth_conditions	danger-distinct	ears	generic	20	orange	10	False	kazzes
1	1623	truth_conditions	nondistinctive	feathers	generic	21	gold	70	True	plovs
1	3551	truth_conditions	danger-distinct	tails	generic	22	green	70	True	trufts
1	1560	truth_conditions	nondistinctive	scales	generic	23	blue	10	False	reesles
1	1483	truth_conditions	danger-distinct	fur	generic	24	copper	50	False	kweps
1	1484	truth_conditions	danger-distinct	shells	generic	25	purple	70	True	javs
1	1671	truth_conditions	nondistinctive	spots	generic	26	copper	10	False	glippets
1	1860	truth_conditions	bare	feathers	generic	27	red	30	False	noobs
1	2108	truth_conditions	danger-distinct	teeth	generic	28	pink	70	True	krivels
1	1511	truth_conditions	nondistinctive	stripes	generic	29	silver	90	True	frams
2	13725	truth_conditions	nondistinctive	fur	generic	0	copper	50	True	kweps
2	2584	truth_conditions	nondistinctive	teeth	generic	1	pink	30	True	krivels
2	2753	truth_conditions	danger-distinct	scales	generic	2	yellow	70	False	dorbs
2	5394	truth_conditions	nondistinctive	ears	generic	3	orange	70	True	kazzes
2	7613	truth_conditions	danger-distinct	ears	generic	4	blue	70	True	cheebas
2	2214	truth_conditions	bare	shells	generic	5	orange	50	False	luzaks
2	2865	truth_conditions	danger-distinct	teeth	generic	6	blue	10	True	thups
2	2547	truth_conditions	nondistinctive	tails	generic	7	green	90	True	trufts
2	1742	truth_conditions	bare	scales	generic	8	blue	90	True	reesles
2	4690	truth_conditions	bare	fur	generic	9	yellow	50	False	ollers
2	1820	truth_conditions	bare	legs	generic	10	pink	30	False	feps
2	4045	truth_conditions	danger-distinct	shells	generic	11	green	90	True	moxes
2	4568	truth_conditions	bare	teeth	generic	12	green	10	False	zoovs
2	4323	truth_conditions	nondistinctive	shells	generic	13	purple	50	False	javs
2	4290	truth_conditions	danger-distinct	fur	generic	14	silver	50	True	morseths
2	3940	truth_conditions	danger-distinct	stripes	generic	15	copper	30	True	mooks
2	5274	truth_conditions	bare	feathers	generic	16	red	10	False	noobs
2	28547	truth_conditions	danger-distinct	legs	generic	17	silver	90	True	ackles
2	2154	truth_conditions	nondistinctive	stripes	generic	18	silver	90	True	frams
2	1860	truth_conditions	bare	tails	generic	19	purple	70	True	taifels
2	2175	truth_conditions	danger-distinct	feathers	generic	20	gold	70	True	plovs
2	1684	truth_conditions	bare	ears	generic	21	pink	30	False	elleps
2	1604	truth_conditions	danger-distinct	tails	generic	22	orange	10	True	zorbs
2	6742	truth_conditions	nondistinctive	legs	generic	23	yellow	70	True	ludinos
2	1408	truth_conditions	bare	stripes	generic	24	gold	30	False	daiths
2	2887	truth_conditions	nondistinctive	spots	generic	25	red	10	False	sapers
2	3147	truth_conditions	nondistinctive	scales	generic	26	red	90	True	blins
2	1780	truth_conditions	nondistinctive	feathers	generic	27	purple	10	False	lorches
2	1545	truth_conditions	bare	spots	generic	28	gold	30	False	stups
2	2052	truth_conditions	danger-distinct	spots	generic	29	copper	50	True	glippets
3	14232	truth_conditions	danger-distinct	spots	generic	0	copper	30	True	glippets
3	8650	truth_conditions	nondistinctive	teeth	generic	1	pink	50	True	krivels
3	4450	truth_conditions	danger-distinct	scales	generic	2	red	70	True	blins
3	3901	truth_conditions	nondistinctive	shells	generic	3	green	90	True	moxes
3	6566	truth_conditions	bare	stripes	generic	4	silver	30	False	frams
3	3187	truth_conditions	nondistinctive	ears	generic	5	orange	50	True	kazzes
3	5689	truth_conditions	danger-distinct	shells	generic	6	orange	10	False	luzaks
3	4570	truth_conditions	bare	scales	generic	7	blue	90	True	reesles
3	1657	truth_conditions	bare	tails	generic	8	purple	70	True	taifels
3	12019	truth_conditions	danger-distinct	fur	generic	9	copper	30	False	kweps
3	1807	truth_conditions	bare	spots	generic	10	gold	50	True	stups
3	3017	truth_conditions	danger-distinct	teeth	generic	11	green	50	True	zoovs
3	6749	truth_conditions	nondistinctive	scales	generic	12	yellow	70	True	dorbs
3	2117	truth_conditions	danger-distinct	legs	generic	13	pink	90	True	feps
3	2870	truth_conditions	nondistinctive	feathers	generic	14	gold	30	False	plovs
3	1150	truth_conditions	nondistinctive	spots	generic	15	red	90	True	sapers
3	1356	truth_conditions	nondistinctive	tails	generic	16	green	70	True	trufts
3	1937	truth_conditions	danger-distinct	stripes	generic	17	copper	70	True	mooks
3	1380	truth_conditions	bare	fur	generic	18	silver	50	True	morseths
3	2270	truth_conditions	danger-distinct	ears	generic	19	pink	10	False	elleps
3	2502	truth_conditions	bare	ears	generic	20	blue	10	False	cheebas
3	1375	truth_conditions	bare	feathers	generic	21	purple	10	False	lorches
3	2163	truth_conditions	nondistinctive	fur	generic	22	yellow	30	False	ollers
3	3394	truth_conditions	danger-distinct	tails	generic	23	orange	30	False	zorbs
3	1780	truth_conditions	danger-distinct	feathers	generic	24	red	90	True	noobs
3	1276	truth_conditions	nondistinctive	legs	generic	25	silver	50	True	ackles
3	1627	truth_conditions	bare	shells	generic	26	purple	10	False	javs
3	1023	truth_conditions	bare	teeth	generic	27	blue	10	False	thups
3	1333	truth_conditions	bare	legs	generic	28	yellow	90	True	ludinos
3	2994	truth_conditions	nondistinctive	stripes	generic	29	gold	70	True	daiths
4	5771	truth_conditions	bare	spots	generic	0	gold	10	False	stups
4	13230	truth_conditions	nondistinctive	fur	generic	1	copper	10	False	kweps
4	5953	truth_conditions	danger-distinct	ears	generic	2	blue	10	True	cheebas
4	2934	truth_conditions	nondistinctive	spots	generic	3	red	50	False	sapers
4	4168	truth_conditions	danger-distinct	stripes	generic	4	copper	70	True	mooks
4	3860	truth_conditions	nondistinctive	teeth	generic	5	pink	30	False	krivels
4	14062	truth_conditions	danger-distinct	spots	generic	6	copper	90	True	glippets
4	2786	truth_conditions	danger-distinct	teeth	generic	7	blue	30	True	thups
4	1625	truth_conditions	danger-distinct	legs	generic	8	yellow	70	True	ludinos
4	4382	truth_conditions	bare	scales	generic	9	yellow	90	False	dorbs
4	2803	truth_conditions	danger-distinct	scales	generic	10	red	70	True	blins
4	3577	truth_conditions	nondistinctive	stripes	generic	11	gold	50	False	daiths
4	1435	truth_conditions	danger-distinct	tails	generic	12	purple	30	True	taifels
4	5533	truth_conditions	bare	fur	generic	13	silver	50	False	morseths
4	2055	truth_conditions	danger-distinct	shells	generic	14	green	30	True	moxes
4	5609	truth_conditions	nondistinctive	scales	generic	15	blue	90	False	reesles
4	11650	truth_conditions	nondistinctive	ears	generic	16	pink	90	False	elleps
4	7166	truth_conditions	bare	teeth	generic	17	green	70	False	zoovs
4	2577	truth_conditions	nondistinctive	shells	generic	18	purple	50	False	javs
4	3528	truth_conditions	bare	feathers	generic	19	purple	10	False	lorches
4	2822	truth_conditions	nondistinctive	feathers	generic	20	gold	30	False	plovs
4	2547	truth_conditions	bare	shells	generic	21	orange	50	False	luzaks
4	2170	truth_conditions	nondistinctive	tails	generic	22	orange	90	False	zorbs
4	2468	truth_conditions	bare	ears	generic	23	orange	50	False	kazzes
4	2265	truth_conditions	bare	tails	generic	24	green	70	False	trufts
4	1546	truth_conditions	bare	legs	generic	25	silver	10	False	ackles
4	1473	truth_conditions	danger-distinct	fur	generic	26	yellow	10	True	ollers
4	1195	truth_conditions	danger-distinct	feathers	generic	27	red	30	True	noobs
4	2108	truth_conditions	bare	stripes	generic	28	silver	70	False	frams
4	3723	truth_conditions	nondistinctive	legs	generic	29	pink	90	False	feps
5	10245	truth_conditions	danger-distinct	ears	generic	0	blue	10	True	cheebas
5	5565	truth_conditions	nondistinctive	teeth	generic	1	pink	50	True	krivels
5	3719	truth_conditions	danger-distinct	teeth	generic	2	green	30	True	zoovs
5	3031	truth_conditions	bare	fur	generic	3	copper	90	True	kweps
5	3647	truth_conditions	danger-distinct	feathers	generic	4	purple	70	True	lorches
5	3119	truth_conditions	bare	ears	generic	5	pink	90	True	elleps
5	6349	truth_conditions	danger-distinct	stripes	generic	6	copper	70	True	mooks
5	3664	truth_conditions	bare	stripes	generic	7	silver	10	True	frams
5	7812	truth_conditions	nondistinctive	ears	generic	8	orange	30	True	kazzes
5	5856	truth_conditions	danger-distinct	fur	generic	9	yellow	70	True	ollers
5	5591	truth_conditions	danger-distinct	legs	generic	10	pink	50	True	feps
5	5352	truth_conditions	danger-distinct	scales	generic	11	red	10	True	blins
5	5222	truth_conditions	nondistinctive	legs	generic	12	silver	50	True	ackles
5	3118	truth_conditions	bare	spots	generic	13	copper	70	True	glippets
5	3632	truth_conditions	bare	tails	generic	14	purple	90	True	taifels
5	4381	truth_conditions	nondistinctive	shells	generic	15	orange	30	True	luzaks
5	3474	truth_conditions	bare	feathers	generic	16	red	10	True	noobs
5	2909	truth_conditions	bare	teeth	generic	17	blue	90	True	thups
5	4150	truth_conditions	nondistinctive	stripes	generic	18	gold	30	True	daiths
5	4711	truth_conditions	bare	shells	generic	19	purple	70	True	javs
5	4048	truth_conditions	nondistinctive	scales	generic	20	yellow	50	True	dorbs
5	4295	truth_conditions	bare	legs	generic	21	yellow	30	True	ludinos
5	6031	truth_conditions	danger-distinct	shells	generic	22	green	50	True	moxes
5	4943	truth_conditions	danger-distinct	tails	generic	23	green	70	True	trufts
5	5822	truth_conditions	nondistinctive	fur	generic	24	silver	90	True	morseths
5	5471	truth_conditions	nondistinctive	tails	generic	25	orange	90	True	zorbs
5	5647	truth_conditions	danger-distinct	spots	generic	26	red	10	True	sapers
5	5457	truth_conditions	nondistinctive	spots	generic	27	gold	30	True	stups
5	4267	truth_conditions	bare	scales	generic	28	blue	10	True	reesles
5	4112	truth_conditions	nondistinctive	feathers	generic	29	gold	50	True	plovs
6	16345	truth_conditions	danger-distinct	fur	generic	0	silver	30	True	morseths
6	3958	truth_conditions	bare	spots	generic	1	copper	50	True	glippets
6	9508	truth_conditions	nondistinctive	teeth	generic	2	blue	50	True	thups
6	5194	truth_conditions	bare	legs	generic	3	yellow	30	True	ludinos
6	14595	truth_conditions	danger-distinct	ears	generic	4	orange	90	True	kazzes
6	42328	truth_conditions	nondistinctive	tails	generic	5	orange	70	True	zorbs
6	3680	truth_conditions	nondistinctive	stripes	generic	6	copper	30	True	mooks
6	5448	truth_conditions	bare	shells	generic	7	purple	10	False	javs
6	3951	truth_conditions	danger-distinct	teeth	generic	8	pink	50	True	krivels
6	12944	truth_conditions	danger-distinct	spots	generic	9	red	50	True	sapers
6	5556	truth_conditions	nondistinctive	spots	generic	10	gold	90	True	stups
6	4798	truth_conditions	danger-distinct	legs	generic	11	silver	90	True	ackles
6	24106	truth_conditions	nondistinctive	legs	generic	12	pink	70	True	feps
6	5260	truth_conditions	bare	feathers	generic	13	red	10	False	noobs
6	3385	truth_conditions	bare	scales	generic	14	blue	50	True	reesles
6	4168	truth_conditions	bare	stripes	generic	15	silver	50	True	frams
6	6451	truth_conditions	danger-distinct	stripes	generic	16	gold	70	True	daiths
6	23274	truth_conditions	nondistinctive	feathers	generic	17	gold	30	True	plovs
6	55037	truth_conditions	bare	ears	generic	18	pink	70	True	elleps
6	4160	truth_conditions	danger-distinct	scales	generic	19	red	10	False	blins
6	2993	truth_conditions	bare	teeth	generic	20	green	10	False	zoovs
6	5456	truth_conditions	nondistinctive	ears	generic	21	blue	10	False	cheebas
6	2745	truth_conditions	bare	fur	generic	22	copper	30	True	kweps
6	6067	truth_conditions	nondistinctive	shells	generic	23	orange	70	True	luzaks
6	4599	truth_conditions	danger-distinct	shells	generic	24	green	90	True	moxes
6	4089	truth_conditions	danger-distinct	feathers	generic	25	purple	90	True	lorches
6	9484	truth_conditions	bare	tails	generic	26	purple	10	False	taifels
6	20670	truth_conditions	nondistinctive	fur	generic	27	yellow	90	True	ollers
6	3177	truth_conditions	nondistinctive	scales	generic	28	yellow	30	True	dorbs
6	8397	truth_conditions	danger-distinct	tails	generic	29	green	70	True	trufts
7	32290	truth_conditions	nondistinctive	feathers	generic	0	purple	10	True	lorches
7	5420	truth_conditions	bare	legs	generic	1	silver	50	True	ackles
7	10663	truth_conditions	danger-distinct	feathers	generic	2	red	90	True	noobs
7	4399	truth_conditions	nondistinctive	fur	generic	3	silver	90	True	morseths
7	8656	truth_conditions	danger-distinct	spots	generic	4	red	10	False	sapers
7	3752	truth_conditions	nondistinctive	tails	generic	5	purple	30	False	taifels
7	5959	truth_conditions	bare	scales	generic	6	blue	10	True	reesles
7	2712	truth_conditions	bare	teeth	generic	7	blue	10	True	thups
7	14209	truth_conditions	nondistinctive	stripes	generic	8	silver	30	False	frams
7	3960	truth_conditions	danger-distinct	fur	generic	9	yellow	90	True	ollers
7	5487	truth_conditions	danger-distinct	stripes	generic	10	gold	30	True	daiths
7	13640	truth_conditions	nondistinctive	scales	generic	11	yellow	90	True	dorbs
7	2847	truth_conditions	danger-distinct	tails	generic	12	green	10	True	trufts
7	7985	truth_conditions	nondistinctive	spots	generic	13	gold	50	False	stups
7	4567	truth_conditions	bare	fur	generic	14	copper	70	True	kweps
7	2319	truth_conditions	danger-distinct	shells	generic	15	orange	70	True	luzaks
7	4816	truth_conditions	bare	stripes	generic	16	copper	70	True	mooks
7	3168	truth_conditions	bare	feathers	generic	17	gold	30	False	plovs
7	7438	truth_conditions	danger-distinct	teeth	generic	18	pink	70	True	krivels
7	2496	truth_conditions	danger-distinct	ears	generic	19	pink	90	True	elleps
7	4272	truth_conditions	nondistinctive	ears	generic	20	blue	70	False	cheebas
7	3096	truth_conditions	bare	shells	generic	21	green	90	True	moxes
7	3463	truth_conditions	bare	tails	generic	22	orange	50	True	zorbs
7	10104	truth_conditions	nondistinctive	teeth	generic	23	green	50	False	zoovs
7	2601	truth_conditions	nondistinctive	shells	generic	24	purple	50	False	javs
7	2295	truth_conditions	bare	spots	generic	25	copper	50	True	glippets
7	4376	truth_conditions	nondistinctive	legs	generic	26	yellow	10	False	ludinos
7	3807	truth_conditions	danger-distinct	scales	generic	27	red	30	False	blins
7	8584	truth_conditions	danger-distinct	legs	generic	28	pink	30	True	feps
7	2896	truth_conditions	bare	ears	generic	29	orange	70	True	kazzes
8	27450	truth_conditions	nondistinctive	shells	generic	0	orange	10	True	luzaks
8	10788	truth_conditions	nondistinctive	feathers	generic	1	gold	70	True	plovs
8	12888	truth_conditions	nondistinctive	stripes	generic	2	silver	90	True	frams
8	18287	truth_conditions	danger-distinct	feathers	generic	3	red	50	True	noobs
8	12119	truth_conditions	danger-distinct	shells	generic	4	green	70	True	moxes
8	12213	truth_conditions	bare	fur	generic	5	copper	70	True	kweps
8	14841	truth_conditions	bare	feathers	generic	6	purple	30	True	lorches
8	16580	truth_conditions	bare	teeth	generic	7	green	50	True	zoovs
8	7736	truth_conditions	bare	scales	generic	8	blue	90	True	reesles
8	12368	truth_conditions	danger-distinct	legs	generic	9	silver	10	True	ackles
8	9328	truth_conditions	nondistinctive	spots	generic	10	red	50	True	sapers
8	13368	truth_conditions	nondistinctive	ears	generic	11	orange	90	True	kazzes
8	11519	truth_conditions	danger-distinct	spots	generic	12	copper	10	True	glippets
8	9960	truth_conditions	danger-distinct	ears	generic	13	pink	30	True	elleps
8	11320	truth_conditions	bare	shells	generic	14	purple	50	True	javs
8	8463	truth_conditions	nondistinctive	tails	generic	15	purple	30	True	taifels
8	4024	truth_conditions	bare	ears	generic	16	blue	90	True	cheebas
8	9096	truth_conditions	nondistinctive	scales	generic	17	yellow	70	True	dorbs
8	15791	truth_conditions	nondistinctive	legs	generic	18	pink	30	True	feps
8	4399	truth_conditions	bare	stripes	generic	19	copper	70	True	mooks
8	9823	truth_conditions	danger-distinct	stripes	generic	20	gold	10	True	daiths
8	5264	truth_conditions	bare	spots	generic	21	gold	30	True	stups
8	9528	truth_conditions	danger-distinct	scales	generic	22	red	70	True	blins
8	15760	truth_conditions	nondistinctive	fur	generic	23	yellow	90	True	ollers
8	18552	truth_conditions	bare	legs	generic	24	yellow	50	True	ludinos
8	7327	truth_conditions	nondistinctive	teeth	generic	25	blue	10	True	thups
8	25350	truth_conditions	danger-distinct	fur	generic	26	silver	90	True	morseths
8	29136	truth_conditions	danger-distinct	tails	generic	27	green	10	True	trufts
8	5215	truth_conditions	danger-distinct	teeth	generic	28	pink	30	True	krivels
8	14960	truth_conditions	bare	tails	generic	29	orange	50	True	zorbs
9	9268	truth_conditions	bare	shells	generic	0	green	30	True	moxes
9	13894	truth_conditions	danger-distinct	teeth	generic	1	green	50	True	zoovs
9	8452	truth_conditions	bare	ears	generic	2	blue	50	True	cheebas
9	13131	truth_conditions	bare	teeth	generic	3	pink	10	False	krivels
9	9557	truth_conditions	danger-distinct	feathers	generic	4	red	30	True	noobs
9	9459	truth_conditions	nondistinctive	spots	generic	5	red	10	True	sapers
9	6033	truth_conditions	bare	scales	generic	6	yellow	10	False	dorbs
9	5527	truth_conditions	bare	stripes	generic	7	gold	50	True	daiths
9	8516	truth_conditions	nondistinctive	tails	generic	8	green	70	True	trufts
9	9886	truth_conditions	danger-distinct	tails	generic	9	orange	70	True	zorbs
9	6844	truth_conditions	bare	fur	generic	10	copper	70	True	kweps
9	10538	truth_conditions	nondistinctive	shells	generic	11	orange	70	True	luzaks
9	11815	truth_conditions	nondistinctive	ears	generic	12	orange	90	True	kazzes
9	11935	truth_conditions	nondistinctive	fur	generic	13	yellow	10	False	ollers
9	10858	truth_conditions	nondistinctive	legs	generic	14	silver	90	True	ackles
9	8141	truth_conditions	nondistinctive	feathers	generic	15	gold	70	True	plovs
9	6036	truth_conditions	bare	spots	generic	16	gold	50	True	stups
9	9392	truth_conditions	danger-distinct	ears	generic	17	pink	50	True	elleps
9	12018	truth_conditions	danger-distinct	stripes	generic	18	copper	30	True	mooks
9	15478	truth_conditions	nondistinctive	scales	generic	19	blue	90	True	reesles
9	12556	truth_conditions	nondistinctive	stripes	generic	20	silver	30	True	frams
9	8695	truth_conditions	nondistinctive	teeth	generic	21	blue	90	True	thups
9	15049	truth_conditions	danger-distinct	fur	generic	22	silver	30	True	morseths
9	6033	truth_conditions	bare	tails	generic	23	purple	30	True	taifels
9	7140	truth_conditions	bare	legs	generic	24	pink	10	False	feps
9	7609	truth_conditions	danger-distinct	legs	generic	25	yellow	70	True	ludinos
9	9722	truth_conditions	danger-distinct	spots	generic	26	copper	90	True	glippets
9	6408	truth_conditions	bare	feathers	generic	27	purple	90	True	lorches
9	8077	truth_conditions	danger-distinct	shells	generic	28	purple	50	True	javs
9	13324	truth_conditions	danger-distinct	scales	generic	29	red	10	True	blins
10	10264	truth_conditions	danger-distinct	stripes	generic	0	silver	50	True	frams
10	4893	truth_conditions	bare	stripes	generic	1	gold	90	True	daiths
10	6088	truth_conditions	danger-distinct	scales	generic	2	red	30	True	blins
10	3424	truth_conditions	nondistinctive	spots	generic	3	gold	10	True	stups
10	4648	truth_conditions	danger-distinct	spots	generic	4	copper	10	True	glippets
10	6391	truth_conditions	nondistinctive	scales	generic	5	blue	50	True	reesles
10	2512	truth_conditions	nondistinctive	teeth	generic	6	blue	30	True	thups
10	2064	truth_conditions	nondistinctive	feathers	generic	7	red	30	True	noobs
10	3592	truth_conditions	nondistinctive	tails	generic	8	orange	50	True	zorbs
10	2144	truth_conditions	nondistinctive	stripes	generic	9	copper	10	True	mooks
10	2072	truth_conditions	bare	tails	generic	10	purple	10	True	taifels
10	2687	truth_conditions	danger-distinct	fur	generic	11	silver	30	True	morseths
10	2121	truth_conditions	nondistinctive	ears	generic	12	blue	10	True	cheebas
10	1599	truth_conditions	bare	scales	generic	13	yellow	70	True	dorbs
10	1631	truth_conditions	bare	shells	generic	14	orange	30	True	luzaks
10	1624	truth_conditions	nondistinctive	shells	generic	15	purple	90	True	javs
10	1952	truth_conditions	bare	teeth	generic	16	green	30	True	zoovs
10	2335	truth_conditions	danger-distinct	ears	generic	17	pink	90	True	elleps
10	1704	truth_conditions	danger-distinct	teeth	generic	18	pink	90	True	krivels
10	1617	truth_conditions	danger-distinct	shells	generic	19	green	70	True	moxes
10	1056	truth_conditions	nondistinctive	legs	generic	20	yellow	50	True	ludinos
10	1751	truth_conditions	nondistinctive	fur	generic	21	yellow	70	True	ollers
10	3673	truth_conditions	danger-distinct	legs	generic	22	silver	50	True	ackles
10	1263	truth_conditions	danger-distinct	tails	generic	23	green	90	True	trufts
10	2305	truth_conditions	bare	feathers	generic	24	purple	70	True	lorches
10	2184	truth_conditions	bare	ears	generic	25	orange	50	True	kazzes
10	1888	truth_conditions	bare	legs	generic	26	pink	10	True	feps
10	2336	truth_conditions	danger-distinct	feathers	generic	27	gold	90	True	plovs
10	2128	truth_conditions	bare	fur	generic	28	copper	70	True	kweps
10	1327	truth_conditions	bare	spots	generic	29	red	70	True	sapers
11	10649	truth_conditions	danger-distinct	spots	generic	0	gold	10	True	stups
11	6974	truth_conditions	bare	tails	generic	1	purple	50	False	taifels
11	9295	truth_conditions	nondistinctive	teeth	generic	2	green	50	False	zoovs
11	11648	truth_conditions	nondistinctive	legs	generic	3	pink	70	False	feps
11	6616	truth_conditions	bare	stripes	generic	4	silver	50	False	frams
11	3751	truth_conditions	bare	teeth	generic	5	pink	10	False	krivels
11	10080	truth_conditions	nondistinctive	spots	generic	6	copper	90	False	glippets
11	5024	truth_conditions	bare	shells	generic	7	orange	90	False	luzaks
11	10896	truth_conditions	danger-distinct	ears	generic	8	orange	90	True	kazzes
11	3815	truth_conditions	bare	legs	generic	9	yellow	30	False	ludinos
11	4088	truth_conditions	bare	fur	generic	10	silver	30	False	morseths
11	6961	truth_conditions	danger-distinct	legs	generic	11	silver	30	True	ackles
11	9336	truth_conditions	danger-distinct	fur	generic	12	yellow	10	True	ollers
11	4279	truth_conditions	bare	spots	generic	13	red	10	False	sapers
11	8496	truth_conditions	danger-distinct	feathers	generic	14	gold	70	True	plovs
11	6983	truth_conditions	nondistinctive	shells	generic	15	purple	30	False	javs
11	5704	truth_conditions	danger-distinct	teeth	generic	16	blue	90	True	thups
11	6905	truth_conditions	danger-distinct	tails	generic	17	orange	90	True	zorbs
11	9015	truth_conditions	nondistinctive	stripes	generic	18	copper	30	False	mooks
11	7143	truth_conditions	nondistinctive	ears	generic	19	pink	90	False	elleps
11	3856	truth_conditions	bare	scales	generic	20	yellow	30	False	dorbs
11	9648	truth_conditions	nondistinctive	tails	generic	21	green	10	False	trufts
11	4391	truth_conditions	bare	feathers	generic	22	red	50	False	noobs
11	8712	truth_conditions	nondistinctive	fur	generic	23	copper	70	False	kweps
11	9631	truth_conditions	danger-distinct	shells	generic	24	green	50	True	moxes
11	6401	truth_conditions	danger-distinct	stripes	generic	25	gold	50	True	daiths
11	8607	truth_conditions	danger-distinct	scales	generic	26	blue	70	True	reesles
11	7193	truth_conditions	nondistinctive	feathers	generic	27	purple	70	False	lorches
11	4528	truth_conditions	bare	ears	generic	28	blue	10	False	cheebas
11	4944	truth_conditions	nondistinctive	scales	generic	29	red	70	False	blins
12	12306	truth_conditions	danger-distinct	stripes	generic	0	gold	90	True	daiths
12	10106	truth_conditions	nondistinctive	shells	generic	1	purple	10	True	javs
12	5345	truth_conditions	danger-distinct	teeth	generic	2	pink	30	True	krivels
12	3627	truth_conditions	nondistinctive	teeth	generic	3	blue	70	True	thups
12	2776	truth_conditions	bare	legs	generic	4	yellow	10	True	ludinos
12	4908	truth_conditions	nondistinctive	scales	generic	5	blue	30	True	reesles
12	5157	truth_conditions	bare	feathers	generic	6	red	50	True	noobs
12	4820	truth_conditions	nondistinctive	tails	generic	7	green	30	True	trufts
12	3046	truth_conditions	nondistinctive	fur	generic	8	yellow	10	True	ollers
12	4298	truth_conditions	danger-distinct	legs	generic	9	silver	50	True	ackles
12	3434	truth_conditions	bare	shells	generic	10	green	50	True	moxes
12	3990	truth_conditions	nondistinctive	stripes	generic	11	copper	90	True	mooks
12	3766	truth_conditions	danger-distinct	fur	generic	12	copper	70	True	kweps
12	2196	truth_conditions	bare	fur	generic	13	silver	30	True	morseths
12	1828	truth_conditions	bare	stripes	generic	14	silver	90	True	frams
12	8301	truth_conditions	danger-distinct	scales	generic	15	yellow	30	True	dorbs
12	2564	truth_conditions	bare	tails	generic	16	orange	10	True	zorbs
12	3852	truth_conditions	bare	scales	generic	17	red	90	True	blins
12	4903	truth_conditions	danger-distinct	feathers	generic	18	purple	70	True	lorches
12	3253	truth_conditions	nondistinctive	ears	generic	19	blue	70	True	cheebas
12	2123	truth_conditions	bare	ears	generic	20	pink	50	True	elleps
12	4802	truth_conditions	danger-distinct	ears	generic	21	orange	10	True	kazzes
12	3074	truth_conditions	danger-distinct	tails	generic	22	purple	70	True	taifels
12	2416	truth_conditions	danger-distinct	shells	generic	23	orange	10	True	luzaks
12	2878	truth_conditions	nondistinctive	legs	generic	24	pink	50	True	feps
12	2558	truth_conditions	danger-distinct	spots	generic	25	copper	50	True	glippets
12	3676	truth_conditions	nondistinctive	spots	generic	26	red	90	True	sapers
12	1946	truth_conditions	bare	spots	generic	27	gold	90	True	stups
12	3760	truth_conditions	nondistinctive	feathers	generic	28	gold	70	True	plovs
12	2679	truth_conditions	bare	teeth	generic	29	green	30	True	zoovs
13	6400	truth_conditions	bare	feathers	generic	0	gold	30	False	plovs
13	10712	truth_conditions	nondistinctive	ears	generic	1	pink	10	False	elleps
13	3704	truth_conditions	bare	stripes	generic	2	gold	70	True	daiths
13	8161	truth_conditions	nondistinctive	legs	generic	3	yellow	90	True	ludinos
13	2570	truth_conditions	bare	teeth	generic	4	pink	90	True	krivels
13	3083	truth_conditions	bare	ears	generic	5	orange	90	True	kazzes
13	6156	truth_conditions	nondistinctive	teeth	generic	6	blue	70	True	thups
13	6375	truth_conditions	danger-distinct	tails	generic	7	green	50	True	trufts
13	6338	truth_conditions	danger-distinct	stripes	generic	8	copper	50	True	mooks
13	5721	truth_conditions	danger-distinct	scales	generic	9	yellow	50	True	dorbs
13	5139	truth_conditions	danger-distinct	feathers	generic	10	red	30	True	noobs
13	5642	truth_conditions	nondistinctive	feathers	generic	11	purple	50	False	lorches
13	3191	truth_conditions	bare	tails	generic	12	orange	30	False	zorbs
13	10676	truth_conditions	danger-distinct	legs	generic	13	silver	70	True	ackles
13	3107	truth_conditions	nondistinctive	stripes	generic	14	silver	10	False	frams
13	2559	truth_conditions	bare	legs	generic	15	pink	30	False	feps
13	13357	truth_conditions	nondistinctive	tails	generic	16	purple	50	False	taifels
13	2744	truth_conditions	nondistinctive	scales	generic	17	blue	30	False	reesles
13	8083	truth_conditions	danger-distinct	ears	generic	18	blue	30	True	cheebas
13	2586	truth_conditions	danger-distinct	shells	generic	19	orange	70	True	luzaks
13	1599	truth_conditions	bare	scales	generic	20	red	10	False	blins
13	1871	truth_conditions	bare	shells	generic	21	purple	90	True	javs
13	4864	truth_conditions	danger-distinct	teeth	generic	22	green	10	True	zoovs
13	3050	truth_conditions	bare	spots	generic	23	red	90	True	sapers
13	4702	truth_conditions	danger-distinct	spots	generic	24	gold	70	True	stups
13	4521	truth_conditions	bare	fur	generic	25	copper	10	False	kweps
13	6142	truth_conditions	nondistinctive	shells	generic	26	green	50	False	moxes
13	3332	truth_conditions	nondistinctive	spots	generic	27	copper	10	False	glippets
13	3613	truth_conditions	nondistinctive	fur	generic	28	yellow	90	True	ollers
13	3964	truth_conditions	danger-distinct	fur	generic	29	silver	70	True	morseths
14	13091	truth_conditions	danger-distinct	scales	generic	0	yellow	30	True	dorbs
14	9667	truth_conditions	danger-distinct	legs	generic	1	yellow	10	True	ludinos
14	11014	truth_conditions	danger-distinct	fur	generic	2	yellow	10	True	ollers
14	10321	truth_conditions	danger-distinct	feathers	generic	3	red	90	True	noobs
14	11560	truth_conditions	nondistinctive	stripes	generic	4	copper	70	True	mooks
14	10902	truth_conditions	nondistinctive	tails	generic	5	purple	90	True	taifels
14	9120	truth_conditions	nondistinctive	scales	generic	6	blue	30	True	reesles
14	4367	truth_conditions	bare	feathers	generic	7	gold	10	True	plovs
14	7681	truth_conditions	nondistinctive	feathers	generic	8	purple	50	True	lorches
14	7639	truth_conditions	nondistinctive	shells	generic	9	purple	50	True	javs
14	7632	truth_conditions	danger-distinct	shells	generic	10	orange	90	True	luzaks
14	8248	truth_conditions	nondistinctive	teeth	generic	11	pink	70	True	krivels
14	4312	truth_conditions	bare	stripes	generic	12	silver	30	True	frams
14	11072	truth_conditions	danger-distinct	stripes	generic	13	gold	30	True	daiths
14	9136	truth_conditions	danger-distinct	ears	generic	14	blue	90	True	cheebas
14	3895	truth_conditions	bare	scales	generic	15	red	50	True	blins
14	8737	truth_conditions	nondistinctive	legs	generic	16	silver	30	True	ackles
14	6183	truth_conditions	bare	ears	generic	17	orange	70	True	kazzes
14	3561	truth_conditions	bare	shells	generic	18	green	90	True	moxes
14	7319	truth_conditions	danger-distinct	tails	generic	19	orange	70	True	zorbs
14	9217	truth_conditions	danger-distinct	teeth	generic	20	green	50	True	zoovs
14	3599	truth_conditions	bare	teeth	generic	21	blue	10	True	thups
14	4903	truth_conditions	bare	spots	generic	22	copper	30	True	glippets
14	7007	truth_conditions	nondistinctive	fur	generic	23	silver	10	True	morseths
14	4281	truth_conditions	bare	legs	generic	24	pink	90	True	feps
14	8214	truth_conditions	nondistinctive	spots	generic	25	gold	50	True	stups
14	3944	truth_conditions	bare	fur	generic	26	copper	70	True	kweps
14	7329	truth_conditions	danger-distinct	spots	generic	27	red	70	True	sapers
14	3679	truth_conditions	bare	tails	generic	28	green	10	True	trufts
14	5904	truth_conditions	nondistinctive	ears	generic	29	pink	50	True	elleps
15	14022	truth_conditions	nondistinctive	feathers	generic	0	purple	50	True	lorches
15	12140	truth_conditions	nondistinctive	shells	generic	1	purple	50	True	javs
15	13183	truth_conditions	nondistinctive	tails	generic	2	orange	90	True	zorbs
15	5205	truth_conditions	bare	ears	generic	3	blue	10	True	cheebas
15	8780	truth_conditions	nondistinctive	fur	generic	4	copper	10	True	kweps
15	10692	truth_conditions	danger-distinct	stripes	generic	5	copper	30	True	mooks
15	4439	truth_conditions	bare	feathers	generic	6	red	90	True	noobs
15	5382	truth_conditions	nondistinctive	legs	generic	7	yellow	70	True	ludinos
15	3766	truth_conditions	bare	tails	generic	8	green	30	True	trufts
15	2830	truth_conditions	bare	spots	generic	9	copper	30	True	glippets
15	4192	truth_conditions	danger-distinct	ears	generic	10	pink	10	True	elleps
15	6053	truth_conditions	danger-distinct	tails	generic	11	purple	70	True	taifels
15	6525	truth_conditions	danger-distinct	scales	generic	12	yellow	70	True	dorbs
15	2300	truth_conditions	bare	fur	generic	13	yellow	70	True	ollers
15	4369	truth_conditions	bare	stripes	generic	14	silver	30	True	frams
15	4836	truth_conditions	danger-distinct	feathers	generic	15	gold	10	True	plovs
15	2516	truth_conditions	bare	shells	generic	16	orange	30	True	luzaks
15	6885	truth_conditions	danger-distinct	shells	generic	17	green	70	True	moxes
15	13329	truth_conditions	danger-distinct	spots	generic	18	red	90	True	sapers
15	4912	truth_conditions	nondistinctive	scales	generic	19	blue	50	True	reesles
15	5982	truth_conditions	danger-distinct	fur	generic	20	silver	10	True	morseths
15	2421	truth_conditions	bare	teeth	generic	21	pink	50	True	krivels
15	8226	truth_conditions	nondistinctive	spots	generic	22	gold	70	True	stups
15	10088	truth_conditions	nondistinctive	teeth	generic	23	green	90	True	zoovs
15	3530	truth_conditions	bare	scales	generic	24	red	90	True	blins
15	6425	truth_conditions	danger-distinct	teeth	generic	25	blue	10	True	thups
15	9138	truth_conditions	nondistinctive	stripes	generic	26	gold	30	True	daiths
15	5569	truth_conditions	nondistinctive	ears	generic	27	orange	50	True	kazzes
15	3039	truth_conditions	bare	legs	generic	28	pink	90	True	feps
15	4247	truth_conditions	danger-distinct	legs	generic	29	silver	50	True	ackles
16	19633	truth_conditions	nondistinctive	spots	generic	0	copper	30	True	glippets
16	4941	truth_conditions	bare	stripes	generic	1	silver	50	True	frams
16	10701	truth_conditions	danger-distinct	tails	generic	2	green	30	True	trufts
16	6789	truth_conditions	danger-distinct	legs	generic	3	yellow	90	True	ludinos
16	8626	truth_conditions	bare	shells	generic	4	green	50	True	moxes
16	11554	truth_conditions	nondistinctive	scales	generic	5	yellow	50	True	dorbs
16	9061	truth_conditions	bare	feathers	generic	6	gold	10	True	plovs
16	2984	truth_conditions	bare	tails	generic	7	purple	50	True	taifels
16	5992	truth_conditions	danger-distinct	spots	generic	8	red	30	True	sapers
16	7617	truth_conditions	nondistinctive	fur	generic	9	yellow	70	True	ollers
16	4147	truth_conditions	danger-distinct	scales	generic	10	blue	30	True	reesles
16	4040	truth_conditions	bare	scales	generic	11	red	50	True	blins
16	5735	truth_conditions	danger-distinct	shells	generic	12	orange	50	True	luzaks
16	7466	truth_conditions	danger-distinct	fur	generic	13	silver	90	True	morseths
16	6806	truth_conditions	danger-distinct	stripes	generic	14	copper	90	True	mooks
16	4594	truth_conditions	nondistinctive	feathers	generic	15	red	90	True	noobs
16	4656	truth_conditions	nondistinctive	ears	generic	16	orange	30	True	kazzes
16	2499	truth_conditions	nondistinctive	teeth	generic	17	pink	70	True	krivels
16	2528	truth_conditions	nondistinctive	shells	generic	18	purple	70	True	javs
16	4618	truth_conditions	bare	ears	generic	19	pink	90	True	elleps
16	4446	truth_conditions	nondistinctive	legs	generic	20	silver	70	True	ackles
16	3163	truth_conditions	bare	fur	generic	21	copper	90	True	kweps
16	5085	truth_conditions	nondistinctive	tails	generic	22	orange	10	True	zorbs
16	9849	truth_conditions	danger-distinct	ears	generic	23	blue	30	True	cheebas
16	4195	truth_conditions	nondistinctive	stripes	generic	24	gold	10	True	daiths
16	2413	truth_conditions	bare	legs	generic	25	pink	10	True	feps
16	5680	truth_conditions	danger-distinct	feathers	generic	26	purple	70	True	lorches
16	3602	truth_conditions	bare	spots	generic	27	gold	10	True	stups
16	4578	truth_conditions	danger-distinct	teeth	generic	28	blue	70	True	thups
16	2335	truth_conditions	bare	teeth	generic	29	green	10	True	zoovs
17	5455	truth_conditions	bare	shells	generic	0	green	90	True	moxes
17	7669	truth_conditions	danger-distinct	legs	generic	1	pink	10	True	feps
17	4200	truth_conditions	nondistinctive	ears	generic	2	orange	10	True	kazzes
17	2384	truth_conditions	nondistinctive	stripes	generic	3	gold	70	True	daiths
17	2505	truth_conditions	danger-distinct	ears	generic	4	pink	10	True	elleps
17	2794	truth_conditions	nondistinctive	feathers	generic	5	purple	50	True	lorches
17	2488	truth_conditions	bare	fur	generic	6	silver	70	True	morseths
17	2409	truth_conditions	bare	teeth	generic	7	blue	50	True	thups
17	32015	truth_conditions	danger-distinct	spots	generic	8	copper	10	True	glippets
17	3058	truth_conditions	danger-distinct	feathers	generic	9	red	90	True	noobs
17	2514	truth_conditions	nondistinctive	legs	generic	10	silver	50	True	ackles
17	833	truth_conditions	danger-distinct	teeth	generic	11	green	90	True	zoovs
17	3121	truth_conditions	danger-distinct	fur	generic	12	yellow	70	True	ollers
17	1372	truth_conditions	danger-distinct	tails	generic	13	green	30	True	trufts
17	1155	truth_conditions	danger-distinct	scales	generic	14	blue	30	True	reesles
17	763	truth_conditions	nondistinctive	teeth	generic	15	pink	50	True	krivels
17	1668	truth_conditions	nondistinctive	fur	generic	16	copper	50	True	kweps
17	946	truth_conditions	nondistinctive	shells	generic	17	orange	70	True	luzaks
17	1509	truth_conditions	nondistinctive	scales	generic	18	red	10	True	blins
17	1565	truth_conditions	bare	stripes	generic	19	silver	30	True	frams
17	784	truth_conditions	bare	ears	generic	20	blue	30	True	cheebas
17	699	truth_conditions	bare	tails	generic	21	purple	90	True	taifels
17	9689	truth_conditions	danger-distinct	shells	generic	22	purple	90	True	javs
17	1799	truth_conditions	bare	spots	generic	23	red	30	True	sapers
17	11178	truth_conditions	bare	legs	generic	24	yellow	30	True	ludinos
17	2358	truth_conditions	danger-distinct	stripes	generic	25	copper	50	True	mooks
17	5602	truth_conditions	nondistinctive	spots	generic	26	gold	70	True	stups
17	923	truth_conditions	bare	scales	generic	27	yellow	70	True	dorbs
17	1942	truth_conditions	nondistinctive	tails	generic	28	orange	90	True	zorbs
17	6093	truth_conditions	bare	feathers	generic	29	gold	10	True	plovs
18	6243	truth_conditions	bare	spots	generic	0	red	10	False	sapers
18	7916	truth_conditions	danger-distinct	feathers	generic	1	gold	50	True	plovs
18	3599	truth_conditions	bare	feathers	generic	2	purple	90	True	lorches
18	17291	truth_conditions	nondistinctive	scales	generic	3	red	30	True	blins
18	5475	truth_conditions	nondistinctive	tails	generic	4	green	30	True	trufts
18	3182	truth_conditions	bare	teeth	generic	5	blue	50	True	thups
18	5462	truth_conditions	nondistinctive	feathers	generic	6	red	50	True	noobs
18	4640	truth_conditions	bare	fur	generic	7	copper	10	False	kweps
18	2039	truth_conditions	bare	scales	generic	8	yellow	90	True	dorbs
18	4799	truth_conditions	danger-distinct	shells	generic	9	green	70	True	moxes
18	3640	truth_conditions	danger-distinct	ears	generic	10	pink	90	True	elleps
18	3728	truth_conditions	bare	stripes	generic	11	gold	30	True	daiths
18	7496	truth_conditions	nondistinctive	spots	generic	12	copper	10	False	glippets
18	4743	truth_conditions	nondistinctive	ears	generic	13	blue	10	False	cheebas
18	2855	truth_conditions	danger-distinct	tails	generic	14	orange	50	True	zorbs
18	4968	truth_conditions	danger-distinct	scales	generic	15	blue	50	True	reesles
18	3063	truth_conditions	nondistinctive	fur	generic	16	silver	90	True	morseths
18	3239	truth_conditions	nondistinctive	stripes	generic	17	silver	70	True	frams
18	2719	truth_conditions	bare	shells	generic	18	purple	90	True	javs
18	2976	truth_conditions	danger-distinct	fur	generic	19	yellow	70	True	ollers
18	2991	truth_conditions	nondistinctive	teeth	generic	20	green	30	True	zoovs
18	1920	truth_conditions	bare	ears	generic	21	orange	70	True	kazzes
18	2127	truth_conditions	danger-distinct	legs	generic	22	silver	70	True	ackles
18	2487	truth_conditions	danger-distinct	teeth	generic	23	pink	70	True	krivels
18	3135	truth_conditions	nondistinctive	legs	generic	24	pink	10	False	feps
18	3224	truth_conditions	danger-distinct	stripes	generic	25	copper	10	False	mooks
18	2488	truth_conditions	bare	legs	generic	26	yellow	50	True	ludinos
18	5913	truth_conditions	bare	tails	generic	27	purple	90	True	taifels
18	5443	truth_conditions	danger-distinct	spots	generic	28	gold	30	True	stups
18	5281	truth_conditions	nondistinctive	shells	generic	29	orange	30	True	luzaks
19	15567	truth_conditions	danger-distinct	feathers	generic	0	purple	50	True	lorches
19	4652	truth_conditions	bare	feathers	generic	1	gold	50	True	plovs
19	8812	truth_conditions	danger-distinct	teeth	generic	2	pink	10	False	krivels
19	6424	truth_conditions	bare	ears	generic	3	pink	30	False	elleps
19	5067	truth_conditions	nondistinctive	fur	generic	4	copper	30	False	kweps
19	5400	truth_conditions	bare	teeth	generic	5	blue	30	False	thups
19	2635	truth_conditions	bare	shells	generic	6	purple	10	False	javs
19	4592	truth_conditions	danger-distinct	legs	generic	7	yellow	30	False	ludinos
19	5653	truth_conditions	nondistinctive	ears	generic	8	blue	50	True	cheebas
19	4852	truth_conditions	nondistinctive	stripes	generic	9	gold	90	True	daiths
19	3069	truth_conditions	nondistinctive	feathers	generic	10	red	70	True	noobs
19	3576	truth_conditions	nondistinctive	scales	generic	11	blue	90	True	reesles
19	3286	truth_conditions	nondistinctive	legs	generic	12	silver	70	True	ackles
19	4151	truth_conditions	danger-distinct	shells	generic	13	green	10	False	moxes
19	5519	truth_conditions	bare	stripes	generic	14	copper	10	False	mooks
19	6580	truth_conditions	danger-distinct	tails	generic	15	green	90	True	trufts
19	3618	truth_conditions	danger-distinct	scales	generic	16	red	70	True	blins
19	4890	truth_conditions	danger-distinct	stripes	generic	17	silver	70	True	frams
19	7403	truth_conditions	nondistinctive	tails	generic	18	orange	30	False	zorbs
19	6767	truth_conditions	nondistinctive	teeth	generic	19	green	50	True	zoovs
19	3181	truth_conditions	danger-distinct	ears	generic	20	orange	10	False	kazzes
19	4399	truth_conditions	nondistinctive	shells	generic	21	orange	30	False	luzaks
19	4105	truth_conditions	bare	legs	generic	22	pink	50	True	feps
19	6345	truth_conditions	danger-distinct	spots	generic	23	gold	90	True	stups
19	3854	truth_conditions	bare	tails	generic	24	purple	70	True	taifels
19	6122	truth_conditions	danger-distinct	fur	generic	25	silver	90	True	morseths
19	4891	truth_conditions	bare	scales	generic	26	yellow	50	True	dorbs
19	2219	truth_conditions	bare	fur	generic	27	yellow	10	False	ollers
19	2617	truth_conditions	bare	spots	generic	28	red	90	True	sapers
19	5870	truth_conditions	nondistinctive	spots	generic	29	copper	70	True	glippets
20	14696	truth_conditions	nondistinctive	shells	generic	0	orange	30	True	luzaks
20	6561	truth_conditions	danger-distinct	stripes	generic	1	copper	10	True	mooks
20	4073	truth_conditions	nondistinctive	teeth	generic	2	blue	70	True	thups
20	3155	truth_conditions	nondistinctive	stripes	generic	3	gold	90	True	daiths
20	3734	truth_conditions	danger-distinct	shells	generic	4	purple	90	True	javs
20	2719	truth_conditions	danger-distinct	spots	generic	5	copper	70	True	glippets
20	2445	truth_conditions	nondistinctive	scales	generic	6	blue	70	True	reesles
20	2569	truth_conditions	nondistinctive	ears	generic	7	blue	50	True	cheebas
20	2527	truth_conditions	nondistinctive	feathers	generic	8	gold	50	True	plovs
20	3119	truth_conditions	danger-distinct	fur	generic	9	copper	10	True	kweps
20	2193	truth_conditions	danger-distinct	legs	generic	10	pink	10	True	feps
20	2294	truth_conditions	bare	shells	generic	11	green	90	True	moxes
20	1690	truth_conditions	danger-distinct	feathers	generic	12	red	30	True	noobs
20	1718	truth_conditions	bare	legs	generic	13	yellow	10	True	ludinos
20	2436	truth_conditions	danger-distinct	ears	generic	14	orange	70	True	kazzes
20	2932	truth_conditions	bare	spots	generic	15	gold	50	True	stups
20	2922	truth_conditions	nondistinctive	spots	generic	16	red	30	True	sapers
20	1657	truth_conditions	nondistinctive	legs	generic	17	silver	90	True	ackles
20	1447	truth_conditions	bare	teeth	generic	18	green	70	True	zoovs
20	2214	truth_conditions	danger-distinct	teeth	generic	19	pink	30	True	krivels
20	1880	truth_conditions	danger-distinct	tails	generic	20	green	30	True	trufts
20	1930	truth_conditions	bare	tails	generic	21	purple	50	True	taifels
20	1926	truth_conditions	nondistinctive	fur	generic	22	yellow	10	True	ollers
20	1582	truth_conditions	bare	scales	generic	23	red	50	True	blins
20	2084	truth_conditions	nondistinctive	tails	generic	24	orange	70	True	zorbs
20	1667	truth_conditions	bare	feathers	generic	25	purple	10	True	lorches
20	1812	truth_conditions	danger-distinct	scales	generic	26	yellow	90	True	dorbs
20	1170	truth_conditions	bare	fur	generic	27	silver	30	True	morseths
20	1335	truth_conditions	bare	ears	generic	28	pink	90	True	elleps
20	2184	truth_conditions	bare	stripes	generic	29	silver	50	True	frams
21	6043	truth_conditions	bare	legs	generic	0	silver	90	True	ackles
21	2980	truth_conditions	bare	stripes	generic	1	copper	90	True	mooks
21	9270	truth_conditions	nondistinctive	shells	generic	2	orange	10	True	luzaks
21	6327	truth_conditions	danger-distinct	ears	generic	3	orange	90	True	kazzes
21	6712	truth_conditions	danger-distinct	scales	generic	4	blue	70	True	reesles
21	5271	truth_conditions	nondistinctive	teeth	generic	5	green	30	True	zoovs
21	3392	truth_conditions	nondistinctive	ears	generic	6	pink	50	True	elleps
21	2913	truth_conditions	bare	shells	generic	7	purple	30	True	javs
21	3599	truth_conditions	bare	spots	generic	8	copper	30	True	glippets
21	8255	truth_conditions	nondistinctive	feathers	generic	9	purple	50	True	lorches
21	6792	truth_conditions	nondistinctive	tails	generic	10	purple	70	True	taifels
21	4526	truth_conditions	bare	fur	generic	11	yellow	30	True	ollers
21	5265	truth_conditions	nondistinctive	scales	generic	12	yellow	10	False	dorbs
21	3007	truth_conditions	danger-distinct	feathers	generic	13	red	30	True	noobs
21	5119	truth_conditions	danger-distinct	stripes	generic	14	gold	90	True	daiths
21	4143	truth_conditions	bare	feathers	generic	15	gold	50	True	plovs
21	7792	truth_conditions	danger-distinct	spots	generic	16	red	10	False	sapers
21	2724	truth_conditions	nondistinctive	fur	generic	17	copper	50	True	kweps
21	5489	truth_conditions	danger-distinct	tails	generic	18	orange	30	True	zorbs
21	4423	truth_conditions	danger-distinct	shells	generic	19	green	10	False	moxes
21	5031	truth_conditions	nondistinctive	stripes	generic	20	silver	90	True	frams
21	2969	truth_conditions	bare	scales	generic	21	red	70	True	blins
21	3368	truth_conditions	nondistinctive	spots	generic	22	gold	70	True	stups
21	4592	truth_conditions	danger-distinct	fur	generic	23	silver	70	True	morseths
21	5303	truth_conditions	danger-distinct	teeth	generic	24	blue	10	False	thups
21	4583	truth_conditions	danger-distinct	legs	generic	25	yellow	90	True	ludinos
21	2799	truth_conditions	bare	ears	generic	26	blue	50	True	cheebas
21	2623	truth_conditions	bare	teeth	generic	27	pink	10	False	krivels
21	3855	truth_conditions	nondistinctive	legs	generic	28	pink	70	True	feps
21	2616	truth_conditions	bare	tails	generic	29	green	50	True	trufts
22	14226	truth_conditions	danger-distinct	feathers	generic	0	gold	30	True	plovs
22	9307	truth_conditions	nondistinctive	teeth	generic	1	pink	10	False	krivels
22	6855	truth_conditions	bare	spots	generic	2	gold	30	False	stups
22	5178	truth_conditions	bare	tails	generic	3	purple	50	False	taifels
22	11819	truth_conditions	danger-distinct	teeth	generic	4	blue	10	True	thups
22	7464	truth_conditions	nondistinctive	spots	generic	5	copper	10	False	glippets
22	4677	truth_conditions	bare	stripes	generic	6	copper	90	True	mooks
22	4239	truth_conditions	bare	shells	generic	7	green	70	True	moxes
22	6812	truth_conditions	danger-distinct	spots	generic	8	red	70	True	sapers
22	7802	truth_conditions	nondistinctive	stripes	generic	9	silver	10	False	frams
22	6696	truth_conditions	nondistinctive	feathers	generic	10	purple	50	False	lorches
22	8891	truth_conditions	nondistinctive	legs	generic	11	pink	30	False	feps
22	10433	truth_conditions	nondistinctive	ears	generic	12	orange	50	False	kazzes
22	13166	truth_conditions	nondistinctive	tails	generic	13	orange	30	False	zorbs
22	7133	truth_conditions	danger-distinct	fur	generic	14	copper	70	True	kweps
22	5443	truth_conditions	danger-distinct	scales	generic	15	yellow	90	True	dorbs
22	6609	truth_conditions	nondistinctive	shells	generic	16	orange	50	False	luzaks
22	16241	truth_conditions	bare	feathers	generic	17	red	70	True	noobs
22	25138	truth_conditions	danger-distinct	legs	generic	18	silver	30	False	ackles
22	6151	truth_conditions	danger-distinct	stripes	generic	19	gold	30	False	daiths
22	7200	truth_conditions	nondistinctive	fur	generic	20	yellow	90	True	ollers
22	4433	truth_conditions	bare	scales	generic	21	red	90	True	blins
22	4531	truth_conditions	bare	teeth	generic	22	green	70	True	zoovs
22	41201	truth_conditions	danger-distinct	ears	generic	23	pink	10	False	elleps
22	2817	truth_conditions	bare	fur	generic	24	silver	70	True	morseths
22	4848	truth_conditions	danger-distinct	tails	generic	25	green	50	False	trufts
22	5631	truth_conditions	nondistinctive	scales	generic	26	blue	10	False	reesles
22	3823	truth_conditions	bare	legs	generic	27	yellow	90	True	ludinos
22	5417	truth_conditions	bare	ears	generic	28	blue	50	False	cheebas
22	3247	truth_conditions	danger-distinct	shells	generic	29	purple	90	True	javs
23	13466	truth_conditions	danger-distinct	stripes	generic	0	gold	90	True	daiths
23	15616	truth_conditions	nondistinctive	fur	generic	1	silver	30	False	morseths
23	9842	truth_conditions	danger-distinct	legs	generic	2	pink	10	False	feps
23	5056	truth_conditions	bare	feathers	generic	3	purple	70	False	lorches
23	3825	truth_conditions	bare	teeth	generic	4	pink	50	False	krivels
23	8985	truth_conditions	nondistinctive	tails	generic	5	purple	10	False	taifels
23	9123	truth_conditions	danger-distinct	spots	generic	6	copper	50	False	glippets
23	4864	truth_conditions	bare	fur	generic	7	copper	70	False	kweps
23	7414	truth_conditions	nondistinctive	spots	generic	8	gold	50	False	stups
23	2966	truth_conditions	bare	spots	generic	9	red	30	False	sapers
23	6979	truth_conditions	nondistinctive	shells	generic	10	green	70	False	moxes
23	8096	truth_conditions	danger-distinct	ears	generic	11	orange	10	False	kazzes
23	5767	truth_conditions	bare	legs	generic	12	yellow	90	False	ludinos
23	2240	truth_conditions	bare	ears	generic	13	pink	70	False	elleps
23	3446	truth_conditions	danger-distinct	fur	generic	14	yellow	90	False	ollers
23	2524	truth_conditions	danger-distinct	teeth	generic	15	blue	90	False	thups
23	2406	truth_conditions	nondistinctive	stripes	generic	16	silver	90	False	frams
23	3410	truth_conditions	danger-distinct	tails	generic	17	green	70	False	trufts
23	2020	truth_conditions	nondistinctive	legs	generic	18	silver	50	False	ackles
23	1956	truth_conditions	danger-distinct	feathers	generic	19	gold	10	False	plovs
23	3172	truth_conditions	nondistinctive	feathers	generic	20	red	50	False	noobs
23	1996	truth_conditions	bare	shells	generic	21	orange	50	False	luzaks
23	1832	truth_conditions	danger-distinct	shells	generic	22	purple	30	False	javs
23	1982	truth_conditions	bare	scales	generic	23	blue	90	False	reesles
23	2114	truth_conditions	nondistinctive	ears	generic	24	blue	10	False	cheebas
23	1786	truth_conditions	bare	tails	generic	25	orange	10	False	zorbs
23	1704	truth_conditions	nondistinctive	teeth	generic	26	green	70	False	zoovs
23	1846	truth_conditions	nondistinctive	scales	generic	27	yellow	30	False	dorbs
23	3612	truth_conditions	danger-distinct	scales	generic	28	red	30	False	blins
23	2090	truth_conditions	bare	stripes	generic	29	copper	30	False	mooks
24	9525	truth_conditions	bare	tails	generic	0	green	30	False	trufts
24	16337	truth_conditions	danger-distinct	stripes	generic	1	gold	50	False	daiths
24	16042	truth_conditions	danger-distinct	fur	generic	2	yellow	30	True	ollers
24	6727	truth_conditions	bare	shells	generic	3	orange	10	False	luzaks
24	9264	truth_conditions	bare	teeth	generic	4	blue	30	True	thups
24	10473	truth_conditions	nondistinctive	spots	generic	5	copper	10	False	glippets
24	9520	truth_conditions	danger-distinct	tails	generic	6	orange	90	True	zorbs
24	9295	truth_conditions	danger-distinct	feathers	generic	7	red	50	True	noobs
24	12569	truth_conditions	nondistinctive	teeth	generic	8	pink	50	True	krivels
24	4282	truth_conditions	bare	spots	generic	9	red	50	True	sapers
24	9177	truth_conditions	bare	fur	generic	10	silver	30	False	morseths
24	7775	truth_conditions	nondistinctive	shells	generic	11	green	70	True	moxes
24	6042	truth_conditions	danger-distinct	scales	generic	12	yellow	50	True	dorbs
24	3946	truth_conditions	bare	stripes	generic	13	silver	90	True	frams
24	7869	truth_conditions	nondistinctive	feathers	generic	14	purple	30	True	lorches
24	4832	truth_conditions	danger-distinct	spots	generic	15	gold	70	True	stups
24	4028	truth_conditions	bare	scales	generic	16	red	90	True	blins
24	5965	truth_conditions	nondistinctive	tails	generic	17	purple	30	False	taifels
24	5039	truth_conditions	bare	ears	generic	18	blue	10	False	cheebas
24	3986	truth_conditions	bare	legs	generic	19	silver	90	True	ackles
24	8353	truth_conditions	nondistinctive	stripes	generic	20	copper	70	True	mooks
24	6625	truth_conditions	nondistinctive	scales	generic	21	blue	10	False	reesles
24	4211	truth_conditions	danger-distinct	teeth	generic	22	green	50	True	zoovs
24	6746	truth_conditions	nondistinctive	legs	generic	23	yellow	70	True	ludinos
24	6298	truth_conditions	danger-distinct	legs	generic	24	pink	90	True	feps
24	6614	truth_conditions	nondistinctive	fur	generic	25	copper	10	False	kweps
24	3722	truth_conditions	bare	feathers	generic	26	gold	90	True	plovs
24	8605	truth_conditions	danger-distinct	ears	generic	27	orange	10	False	kazzes
24	4722	truth_conditions	nondistinctive	ears	generic	28	pink	70	True	elleps
24	4546	truth_conditions	danger-distinct	shells	generic	29	purple	70	True	javs
25	15549	truth_conditions	nondistinctive	ears	generic	0	orange	70	True	kazzes
25	12237	truth_conditions	nondistinctive	legs	generic	1	silver	70	True	ackles
25	10856	truth_conditions	danger-distinct	legs	generic	2	pink	10	True	feps
25	9844	truth_conditions	nondistinctive	feathers	generic	3	gold	10	True	plovs
25	18180	truth_conditions	nondistinctive	shells	generic	4	green	10	True	moxes
25	10947	truth_conditions	bare	legs	generic	5	yellow	10	True	ludinos
25	5512	truth_conditions	bare	teeth	generic	6	green	90	True	zoovs
25	5490	truth_conditions	bare	shells	generic	7	purple	30	True	javs
25	7820	truth_conditions	bare	feathers	generic	8	purple	50	True	lorches
25	3948	truth_conditions	bare	fur	generic	9	copper	10	True	kweps
25	11217	truth_conditions	nondistinctive	scales	generic	10	yellow	50	True	dorbs
25	4240	truth_conditions	bare	ears	generic	11	pink	50	True	elleps
25	17989	truth_conditions	nondistinctive	spots	generic	12	red	10	False	sapers
25	12983	truth_conditions	danger-distinct	shells	generic	13	orange	30	True	luzaks
25	8628	truth_conditions	danger-distinct	feathers	generic	14	red	50	True	noobs
25	29194	truth_conditions	danger-distinct	stripes	generic	15	gold	30	True	daiths
25	7931	truth_conditions	nondistinctive	teeth	generic	16	blue	90	True	thups
25	17213	truth_conditions	nondistinctive	fur	generic	17	silver	50	True	morseths
25	6559	truth_conditions	danger-distinct	tails	generic	18	orange	30	True	zorbs
25	11633	truth_conditions	nondistinctive	stripes	generic	19	silver	70	True	frams
25	6705	truth_conditions	bare	stripes	generic	20	copper	50	True	mooks
25	4725	truth_conditions	bare	spots	generic	21	gold	30	True	stups
25	4691	truth_conditions	bare	scales	generic	22	blue	70	True	reesles
25	9574	truth_conditions	nondistinctive	tails	generic	23	green	90	True	trufts
25	5006	truth_conditions	danger-distinct	scales	generic	24	red	70	True	blins
25	6379	truth_conditions	danger-distinct	spots	generic	25	copper	70	True	glippets
25	10486	truth_conditions	danger-distinct	ears	generic	26	blue	90	True	cheebas
25	10204	truth_conditions	bare	tails	generic	27	purple	30	True	taifels
25	9281	truth_conditions	danger-distinct	teeth	generic	28	pink	90	True	krivels
25	13669	truth_conditions	danger-distinct	fur	generic	29	yellow	90	True	ollers
26	13746	truth_conditions	danger-distinct	shells	generic	0	purple	30	True	javs
26	7886	truth_conditions	bare	legs	generic	1	yellow	10	True	ludinos
26	9667	truth_conditions	danger-distinct	teeth	generic	2	pink	30	True	krivels
26	9601	truth_conditions	danger-distinct	spots	generic	3	copper	70	True	glippets
26	10513	truth_conditions	nondistinctive	tails	generic	4	orange	30	True	zorbs
26	6101	truth_conditions	bare	shells	generic	5	green	50	True	moxes
26	7981	truth_conditions	nondistinctive	stripes	generic	6	gold	90	True	daiths
26	4784	truth_conditions	bare	spots	generic	7	red	90	True	sapers
26	11452	truth_conditions	danger-distinct	feathers	generic	8	red	50	True	noobs
26	4480	truth_conditions	bare	fur	generic	9	copper	70	True	kweps
26	4733	truth_conditions	bare	tails	generic	10	purple	10	True	taifels
26	8350	truth_conditions	nondistinctive	scales	generic	11	red	90	True	blins
26	7401	truth_conditions	nondistinctive	shells	generic	12	orange	30	True	luzaks
26	5995	truth_conditions	danger-distinct	ears	generic	13	orange	10	True	kazzes
26	4820	truth_conditions	bare	teeth	generic	14	green	30	True	zoovs
26	8708	truth_conditions	nondistinctive	legs	generic	15	pink	50	True	feps
26	10458	truth_conditions	nondistinctive	ears	generic	16	blue	70	True	cheebas
26	8300	truth_conditions	danger-distinct	stripes	generic	17	copper	90	True	mooks
26	9297	truth_conditions	nondistinctive	spots	generic	18	gold	90	True	stups
26	11336	truth_conditions	nondistinctive	teeth	generic	19	blue	70	True	thups
26	10951	truth_conditions	danger-distinct	fur	generic	20	yellow	50	True	ollers
26	8499	truth_conditions	danger-distinct	legs	generic	21	silver	70	True	ackles
26	6280	truth_conditions	bare	ears	generic	22	pink	70	True	elleps
26	8335	truth_conditions	nondistinctive	fur	generic	23	silver	50	True	morseths
26	4268	truth_conditions	bare	feathers	generic	24	purple	10	True	lorches
26	7700	truth_conditions	danger-distinct	scales	generic	25	yellow	10	True	dorbs
26	4196	truth_conditions	bare	scales	generic	26	blue	10	True	reesles
26	7601	truth_conditions	nondistinctive	feathers	generic	27	gold	50	True	plovs
26	3701	truth_conditions	bare	stripes	generic	28	silver	30	True	frams
26	6818	truth_conditions	danger-distinct	tails	generic	29	green	90	True	trufts
27	12496	truth_conditions	danger-distinct	teeth	generic	0	blue	70	True	thups
27	12654	truth_conditions	nondistinctive	teeth	generic	1	green	30	True	zoovs
27	3906	truth_conditions	bare	legs	generic	2	yellow	10	True	ludinos
27	7440	truth_conditions	danger-distinct	spots	generic	3	red	10	True	sapers
27	4339	truth_conditions	bare	tails	generic	4	purple	90	True	taifels
27	2331	truth_conditions	bare	scales	generic	5	yellow	50	True	dorbs
27	4477	truth_conditions	danger-distinct	legs	generic	6	silver	90	True	ackles
27	2840	truth_conditions	bare	teeth	generic	7	pink	50	True	krivels
27	1988	truth_conditions	bare	fur	generic	8	silver	50	True	morseths
27	4829	truth_conditions	danger-distinct	feathers	generic	9	gold	70	True	plovs
27	2359	truth_conditions	nondistinctive	shells	generic	10	green	30	True	moxes
27	4192	truth_conditions	nondistinctive	tails	generic	11	orange	70	True	zorbs
27	4938	truth_conditions	bare	shells	generic	12	orange	30	True	luzaks
27	3762	truth_conditions	nondistinctive	legs	generic	13	pink	90	True	feps
27	3147	truth_conditions	nondistinctive	scales	generic	14	red	30	True	blins
27	3618	truth_conditions	nondistinctive	spots	generic	15	copper	90	True	glippets
27	2547	truth_conditions	bare	stripes	generic	16	copper	50	True	mooks
27	2762	truth_conditions	nondistinctive	ears	generic	17	blue	70	True	cheebas
27	2370	truth_conditions	bare	spots	generic	18	gold	30	True	stups
27	5140	truth_conditions	danger-distinct	tails	generic	19	green	30	True	trufts
27	2999	truth_conditions	nondistinctive	fur	generic	20	copper	70	True	kweps
27	3421	truth_conditions	danger-distinct	fur	generic	21	yellow	50	True	ollers
27	4423	truth_conditions	nondistinctive	stripes	generic	22	silver	90	True	frams
27	3902	truth_conditions	danger-distinct	ears	generic	23	orange	50	True	kazzes
27	5114	truth_conditions	danger-distinct	scales	generic	24	blue	10	True	reesles
27	3040	truth_conditions	bare	ears	generic	25	pink	70	True	elleps
27	5130	truth_conditions	danger-distinct	shells	generic	26	purple	10	True	javs
27	3706	truth_conditions	bare	feathers	generic	27	red	10	True	noobs
27	3648	truth_conditions	nondistinctive	feathers	generic	28	purple	90	True	lorches
27	3148	truth_conditions	danger-distinct	stripes	generic	29	gold	10	True	daiths
28	8347	truth_conditions	danger-distinct	shells	generic	0	purple	10	True	javs
28	8201	truth_conditions	danger-distinct	tails	generic	1	green	50	True	trufts
28	7046	truth_conditions	bare	tails	generic	2	purple	70	True	taifels
28	6399	truth_conditions	danger-distinct	legs	generic	3	yellow	30	True	ludinos
28	4239	truth_conditions	nondistinctive	scales	generic	4	red	50	True	blins
28	3824	truth_conditions	danger-distinct	ears	generic	5	pink	90	True	elleps
28	2871	truth_conditions	bare	ears	generic	6	blue	70	True	cheebas
28	5879	truth_conditions	bare	fur	generic	7	silver	10	True	morseths
28	2937	truth_conditions	bare	feathers	generic	8	red	70	True	noobs
28	2502	truth_conditions	danger-distinct	stripes	generic	9	gold	50	True	daiths
28	3767	truth_conditions	danger-distinct	teeth	generic	10	blue	30	True	thups
28	3017	truth_conditions	nondistinctive	tails	generic	11	orange	70	True	zorbs
28	3008	truth_conditions	nondistinctive	spots	generic	12	gold	50	True	stups
28	3511	truth_conditions	danger-distinct	feathers	generic	13	purple	30	True	lorches
28	2991	truth_conditions	danger-distinct	spots	generic	14	copper	90	True	glippets
28	2800	truth_conditions	bare	stripes	generic	15	copper	30	True	mooks
28	8007	truth_conditions	nondistinctive	stripes	generic	16	silver	10	True	frams
28	2792	truth_conditions	bare	legs	generic	17	pink	70	True	feps
28	3519	truth_conditions	nondistinctive	shells	generic	18	green	90	True	moxes
28	8472	truth_conditions	nondistinctive	feathers	generic	19	gold	30	True	plovs
28	1968	truth_conditions	bare	shells	generic	20	orange	70	True	luzaks
28	1496	truth_conditions	bare	spots	generic	21	red	50	True	sapers
28	6329	truth_conditions	danger-distinct	fur	generic	22	yellow	50	True	ollers
28	2343	truth_conditions	nondistinctive	ears	generic	23	orange	90	True	kazzes
28	8528	truth_conditions	danger-distinct	scales	generic	24	blue	10	True	reesles
28	2073	truth_conditions	bare	scales	generic	25	yellow	30	True	dorbs
28	2559	truth_conditions	nondistinctive	teeth	generic	26	pink	10	True	krivels
28	1391	truth_conditions	bare	teeth	generic	27	green	10	True	zoovs
28	2377	truth_conditions	nondistinctive	legs	generic	28	silver	90	True	ackles
28	1830	truth_conditions	nondistinctive	fur	generic	29	copper	90	True	kweps
29	13716	truth_conditions	nondistinctive	stripes	generic	0	copper	50	True	mooks
29	2395	truth_conditions	danger-distinct	ears	generic	1	orange	50	True	kazzes
29	2688	truth_conditions	nondistinctive	fur	generic	2	silver	10	False	morseths
29	9183	truth_conditions	nondistinctive	legs	generic	3	yellow	50	True	ludinos
29	7649	truth_conditions	bare	ears	generic	4	pink	30	False	elleps
29	4896	truth_conditions	danger-distinct	feathers	generic	5	purple	10	False	lorches
29	4053	truth_conditions	bare	spots	generic	6	copper	70	True	glippets
29	3098	truth_conditions	danger-distinct	scales	generic	7	yellow	50	True	dorbs
29	4409	truth_conditions	bare	tails	generic	8	purple	90	True	taifels
29	3032	truth_conditions	danger-distinct	tails	generic	9	orange	30	False	zorbs
29	1713	truth_conditions	bare	stripes	generic	10	gold	90	True	daiths
29	2540	truth_conditions	danger-distinct	spots	generic	11	red	10	False	sapers
29	3266	truth_conditions	nondistinctive	ears	generic	12	blue	50	False	cheebas
29	2438	truth_conditions	danger-distinct	stripes	generic	13	silver	70	True	frams
29	2208	truth_conditions	nondistinctive	shells	generic	14	green	70	True	moxes
29	2271	truth_conditions	bare	teeth	generic	15	green	70	True	zoovs
29	3664	truth_conditions	bare	feathers	generic	16	red	30	False	noobs
29	2729	truth_conditions	danger-distinct	legs	generic	17	silver	70	True	ackles
29	1180	truth_conditions	bare	fur	generic	18	copper	90	True	kweps
29	1594	truth_conditions	nondistinctive	feathers	generic	19	gold	30	False	plovs
29	2175	truth_conditions	nondistinctive	scales	generic	20	red	90	True	blins
29	1663	truth_conditions	danger-distinct	teeth	generic	21	pink	30	False	krivels
29	1479	truth_conditions	nondistinctive	spots	generic	22	gold	70	True	stups
29	2554	truth_conditions	danger-distinct	fur	generic	23	yellow	50	True	ollers
29	1383	truth_conditions	nondistinctive	teeth	generic	24	blue	10	False	thups
29	1718	truth_conditions	bare	shells	generic	25	orange	10	False	luzaks
29	3474	truth_conditions	danger-distinct	shells	generic	26	purple	10	False	javs
29	1998	truth_conditions	nondistinctive	tails	generic	27	green	30	False	trufts
29	1858	truth_conditions	bare	legs	generic	28	pink	90	True	feps
29	1728	truth_conditions	bare	scales	generic	29	blue	90	True	reesles
30	15450	truth_conditions	nondistinctive	fur	generic	0	copper	70	True	kweps
30	8317	truth_conditions	bare	feathers	generic	1	gold	30	False	plovs
30	8118	truth_conditions	nondistinctive	stripes	generic	2	gold	10	False	daiths
30	5622	truth_conditions	bare	spots	generic	3	red	90	True	sapers
30	12677	truth_conditions	danger-distinct	ears	generic	4	blue	90	True	cheebas
30	9108	truth_conditions	danger-distinct	teeth	generic	5	blue	50	False	thups
30	1798	truth_conditions	nondistinctive	scales	generic	6	yellow	10	False	dorbs
30	8119	truth_conditions	danger-distinct	feathers	generic	7	purple	30	False	lorches
30	2320	truth_conditions	nondistinctive	ears	generic	8	pink	10	False	elleps
30	2955	truth_conditions	danger-distinct	shells	generic	9	orange	50	True	luzaks
30	6798	truth_conditions	nondistinctive	tails	generic	10	purple	30	False	taifels
30	3536	truth_conditions	bare	legs	generic	11	yellow	50	True	ludinos
30	2160	truth_conditions	bare	teeth	generic	12	green	10	False	zoovs
30	2996	truth_conditions	nondistinctive	feathers	generic	13	red	70	True	noobs
30	2531	truth_conditions	danger-distinct	fur	generic	14	silver	50	True	morseths
30	2319	truth_conditions	danger-distinct	legs	generic	15	pink	90	True	feps
30	1656	truth_conditions	nondistinctive	legs	generic	16	silver	50	False	ackles
30	2326	truth_conditions	bare	fur	generic	17	yellow	70	True	ollers
30	6854	truth_conditions	danger-distinct	stripes	generic	18	silver	30	False	frams
30	2374	truth_conditions	nondistinctive	teeth	generic	19	pink	30	False	krivels
30	1524	truth_conditions	danger-distinct	spots	generic	20	gold	10	False	stups
30	1631	truth_conditions	danger-distinct	tails	generic	21	orange	90	True	zorbs
30	1962	truth_conditions	bare	shells	generic	22	purple	50	True	javs
30	2140	truth_conditions	danger-distinct	scales	generic	23	blue	70	True	reesles
30	1882	truth_conditions	nondistinctive	shells	generic	24	green	10	False	moxes
30	1983	truth_conditions	bare	scales	generic	25	red	70	True	blins
30	2086	truth_conditions	nondistinctive	spots	generic	26	copper	70	True	glippets
30	1691	truth_conditions	bare	stripes	generic	27	copper	90	True	mooks
30	1468	truth_conditions	bare	ears	generic	28	orange	30	False	kazzes
30	1383	truth_conditions	bare	tails	generic	29	green	90	True	trufts
31	22051	truth_conditions	nondistinctive	feathers	generic	0	gold	30	True	plovs
31	4677	truth_conditions	nondistinctive	ears	generic	1	orange	90	True	kazzes
31	4764	truth_conditions	bare	shells	generic	2	purple	30	False	javs
31	5053	truth_conditions	bare	legs	generic	3	pink	50	True	feps
31	9436	truth_conditions	danger-distinct	ears	generic	4	blue	90	True	cheebas
31	10958	truth_conditions	nondistinctive	fur	generic	5	copper	30	False	kweps
31	4032	truth_conditions	bare	stripes	generic	6	silver	10	False	frams
31	10142	truth_conditions	danger-distinct	teeth	generic	7	blue	10	True	thups
31	3801	truth_conditions	bare	tails	generic	8	green	90	True	trufts
31	7701	truth_conditions	danger-distinct	fur	generic	9	yellow	90	True	ollers
31	3353	truth_conditions	bare	spots	generic	10	gold	70	True	stups
31	16040	truth_conditions	danger-distinct	spots	generic	11	copper	70	True	glippets
31	4985	truth_conditions	nondistinctive	scales	generic	12	yellow	50	True	dorbs
31	7011	truth_conditions	nondistinctive	stripes	generic	13	gold	10	False	daiths
31	6341	truth_conditions	danger-distinct	shells	generic	14	orange	10	True	luzaks
31	3159	truth_conditions	bare	ears	generic	15	pink	70	True	elleps
31	3320	truth_conditions	bare	teeth	generic	16	green	10	False	zoovs
31	3089	truth_conditions	bare	feathers	generic	17	purple	90	True	lorches
31	5468	truth_conditions	danger-distinct	legs	generic	18	yellow	30	True	ludinos
31	7476	truth_conditions	nondistinctive	legs	generic	19	silver	50	True	ackles
31	3226	truth_conditions	bare	fur	generic	20	silver	50	True	morseths
31	7117	truth_conditions	danger-distinct	feathers	generic	21	red	70	True	noobs
31	6411	truth_conditions	nondistinctive	spots	generic	22	red	30	False	sapers
31	6427	truth_conditions	danger-distinct	stripes	generic	23	copper	70	True	mooks
31	4520	truth_conditions	bare	scales	generic	24	red	10	False	blins
31	5880	truth_conditions	danger-distinct	tails	generic	25	purple	90	True	taifels
31	5745	truth_conditions	nondistinctive	tails	generic	26	orange	30	False	zorbs
31	3957	truth_conditions	danger-distinct	scales	generic	27	blue	50	True	reesles
31	4626	truth_conditions	nondistinctive	shells	generic	28	green	70	True	moxes
31	8073	truth_conditions	nondistinctive	teeth	generic	29	pink	50	True	krivels
32	8210	truth_conditions	danger-distinct	fur	generic	0	copper	10	True	kweps
32	7666	truth_conditions	nondistinctive	stripes	generic	1	gold	90	True	daiths
32	3774	truth_conditions	bare	legs	generic	2	pink	90	True	feps
32	6496	truth_conditions	danger-distinct	ears	generic	3	pink	70	True	elleps
32	4030	truth_conditions	nondistinctive	scales	generic	4	yellow	50	False	dorbs
32	4494	truth_conditions	bare	feathers	generic	5	red	90	True	noobs
32	4809	truth_conditions	bare	spots	generic	6	gold	50	True	stups
32	14939	truth_conditions	nondistinctive	shells	generic	7	purple	70	True	javs
32	4908	truth_conditions	danger-distinct	stripes	generic	8	copper	70	True	mooks
32	2336	truth_conditions	danger-distinct	shells	generic	9	green	90	True	moxes
32	6940	truth_conditions	danger-distinct	legs	generic	10	silver	10	True	ackles
32	3721	truth_conditions	bare	scales	generic	11	blue	50	True	reesles
32	4223	truth_conditions	danger-distinct	teeth	generic	12	blue	30	True	thups
32	3932	truth_conditions	bare	tails	generic	13	green	10	False	trufts
32	21667	truth_conditions	nondistinctive	fur	generic	14	silver	10	False	morseths
32	9795	truth_conditions	nondistinctive	tails	generic	15	orange	30	False	zorbs
32	6046	truth_conditions	danger-distinct	tails	generic	16	purple	90	True	taifels
32	3649	truth_conditions	nondistinctive	ears	generic	17	blue	70	True	cheebas
32	3357	truth_conditions	nondistinctive	feathers	generic	18	purple	50	True	lorches
32	4338	truth_conditions	danger-distinct	spots	generic	19	red	30	True	sapers
32	2782	truth_conditions	bare	stripes	generic	20	silver	70	True	frams
32	5973	truth_conditions	nondistinctive	legs	generic	21	yellow	50	True	ludinos
32	4832	truth_conditions	danger-distinct	scales	generic	22	red	10	True	blins
32	3044	truth_conditions	bare	ears	generic	23	orange	30	False	kazzes
32	5244	truth_conditions	bare	fur	generic	24	yellow	50	True	ollers
32	2032	truth_conditions	bare	teeth	generic	25	pink	70	True	krivels
32	11229	truth_conditions	danger-distinct	feathers	generic	26	gold	10	True	plovs
32	7057	truth_conditions	nondistinctive	teeth	generic	27	green	30	False	zoovs
32	2011	truth_conditions	bare	shells	generic	28	orange	90	True	luzaks
32	8621	truth_conditions	nondistinctive	spots	generic	29	copper	30	False	glippets
33	22256	truth_conditions	danger-distinct	fur	generic	0	copper	10	True	kweps
33	11786	truth_conditions	bare	tails	generic	1	purple	50	True	taifels
33	5900	truth_conditions	bare	teeth	generic	2	blue	90	True	thups
33	21568	truth_conditions	nondistinctive	shells	generic	3	purple	50	True	javs
33	10277	truth_conditions	nondistinctive	stripes	generic	4	silver	10	True	frams
33	12493	truth_conditions	danger-distinct	spots	generic	5	red	90	True	sapers
33	16654	truth_conditions	nondistinctive	tails	generic	6	green	50	False	trufts
33	12489	truth_conditions	danger-distinct	shells	generic	7	orange	70	True	luzaks
33	8734	truth_conditions	nondistinctive	feathers	generic	8	gold	90	True	plovs
33	11844	truth_conditions	bare	ears	generic	9	pink	70	True	elleps
33	22670	truth_conditions	nondistinctive	teeth	generic	10	green	30	True	zoovs
33	3542	truth_conditions	bare	shells	generic	11	green	30	True	moxes
33	6897	truth_conditions	danger-distinct	ears	generic	12	blue	10	True	cheebas
33	20929	truth_conditions	nondistinctive	legs	generic	13	silver	10	True	ackles
33	16884	truth_conditions	danger-distinct	legs	generic	14	pink	30	True	feps
33	5040	truth_conditions	bare	stripes	generic	15	copper	30	True	mooks
33	10823	truth_conditions	danger-distinct	stripes	generic	16	gold	50	True	daiths
33	4573	truth_conditions	nondistinctive	spots	generic	17	gold	90	True	stups
33	3568	truth_conditions	bare	spots	generic	18	copper	10	True	glippets
33	4225	truth_conditions	danger-distinct	tails	generic	19	orange	30	True	zorbs
33	3046	truth_conditions	bare	fur	generic	20	silver	90	True	morseths
33	5531	truth_conditions	nondistinctive	scales	generic	21	yellow	70	True	dorbs
33	3848	truth_conditions	bare	feathers	generic	22	red	30	True	noobs
33	3761	truth_conditions	danger-distinct	scales	generic	23	red	90	True	blins
33	2149	truth_conditions	bare	scales	generic	24	blue	50	True	reesles
33	9042	truth_conditions	nondistinctive	fur	generic	25	yellow	10	False	ollers
33	8980	truth_conditions	danger-distinct	teeth	generic	26	pink	50	True	krivels
33	4137	truth_conditions	nondistinctive	ears	generic	27	orange	70	True	kazzes
33	5763	truth_conditions	danger-distinct	feathers	generic	28	purple	70	True	lorches
33	2193	truth_conditions	bare	legs	generic	29	yellow	70	True	ludinos
34	7384	truth_conditions	bare	teeth	generic	0	pink	30	False	krivels
34	2900	truth_conditions	bare	tails	generic	1	green	70	True	trufts
34	8721	truth_conditions	nondistinctive	shells	generic	2	green	90	True	moxes
34	3485	truth_conditions	bare	scales	generic	3	blue	90	True	reesles
34	9234	truth_conditions	danger-distinct	stripes	generic	4	gold	10	True	daiths
34	8510	truth_conditions	nondistinctive	tails	generic	5	orange	90	True	zorbs
34	5472	truth_conditions	nondistinctive	scales	generic	6	yellow	90	True	dorbs
34	3700	truth_conditions	bare	ears	generic	7	pink	50	True	elleps
34	3518	truth_conditions	bare	feathers	generic	8	gold	70	True	plovs
34	9486	truth_conditions	danger-distinct	legs	generic	9	yellow	70	True	ludinos
34	7095	truth_conditions	danger-distinct	tails	generic	10	purple	70	True	taifels
34	5487	truth_conditions	danger-distinct	feathers	generic	11	red	10	False	noobs
34	5200	truth_conditions	danger-distinct	teeth	generic	12	green	30	True	zoovs
34	4002	truth_conditions	nondistinctive	teeth	generic	13	blue	30	True	thups
34	9898	truth_conditions	bare	stripes	generic	14	silver	30	False	frams
34	3648	truth_conditions	nondistinctive	ears	generic	15	orange	90	True	kazzes
34	4112	truth_conditions	danger-distinct	scales	generic	16	red	70	True	blins
34	3388	truth_conditions	danger-distinct	shells	generic	17	purple	50	True	javs
34	4617	truth_conditions	nondistinctive	spots	generic	18	copper	50	True	glippets
34	5519	truth_conditions	nondistinctive	feathers	generic	19	purple	50	True	lorches
34	4848	truth_conditions	nondistinctive	stripes	generic	20	copper	10	False	mooks
34	4401	truth_conditions	nondistinctive	fur	generic	21	copper	70	True	kweps
34	4497	truth_conditions	danger-distinct	spots	generic	22	red	90	True	sapers
34	7122	truth_conditions	danger-distinct	ears	generic	23	blue	30	True	cheebas
34	3220	truth_conditions	bare	shells	generic	24	orange	10	False	luzaks
34	3783	truth_conditions	nondistinctive	legs	generic	25	pink	50	True	feps
34	6484	truth_conditions	danger-distinct	fur	generic	26	yellow	30	True	ollers
34	2883	truth_conditions	bare	spots	generic	27	gold	10	False	stups
34	3898	truth_conditions	bare	fur	generic	28	silver	10	False	morseths
34	3182	truth_conditions	bare	legs	generic	29	silver	50	True	ackles
35	16456	truth_conditions	danger-distinct	fur	generic	0	yellow	70	True	ollers
35	22526	truth_conditions	nondistinctive	legs	generic	1	silver	70	True	ackles
35	8585	truth_conditions	danger-distinct	shells	generic	2	green	50	False	moxes
35	20269	truth_conditions	danger-distinct	scales	generic	3	yellow	50	False	dorbs
35	6991	truth_conditions	bare	stripes	generic	4	copper	90	True	mooks
35	12892	truth_conditions	danger-distinct	ears	generic	5	blue	70	True	cheebas
35	14678	truth_conditions	nondistinctive	ears	generic	6	orange	70	True	kazzes
35	6857	truth_conditions	danger-distinct	legs	generic	7	yellow	70	True	ludinos
35	8056	truth_conditions	bare	tails	generic	8	orange	10	False	zorbs
35	6979	truth_conditions	nondistinctive	scales	generic	9	blue	50	False	reesles
35	5349	truth_conditions	bare	scales	generic	10	red	50	False	blins
35	15483	truth_conditions	nondistinctive	feathers	generic	11	gold	10	False	plovs
35	8693	truth_conditions	nondistinctive	shells	generic	12	purple	10	False	javs
35	8502	truth_conditions	nondistinctive	tails	generic	13	purple	30	False	taifels
35	6115	truth_conditions	danger-distinct	feathers	generic	14	red	30	True	noobs
35	9387	truth_conditions	bare	shells	generic	15	orange	10	False	luzaks
35	5061	truth_conditions	nondistinctive	stripes	generic	16	gold	30	False	daiths
35	3370	truth_conditions	bare	spots	generic	17	gold	90	True	stups
35	7804	truth_conditions	nondistinctive	spots	generic	18	copper	90	True	glippets
35	12649	truth_conditions	bare	fur	generic	19	silver	90	True	morseths
35	7483	truth_conditions	danger-distinct	teeth	generic	20	blue	10	False	thups
35	5994	truth_conditions	danger-distinct	stripes	generic	21	silver	70	True	frams
35	6022	truth_conditions	nondistinctive	teeth	generic	22	pink	30	False	krivels
35	7350	truth_conditions	danger-distinct	spots	generic	23	red	30	False	sapers
35	4388	truth_conditions	bare	teeth	generic	24	green	50	False	zoovs
35	6124	truth_conditions	bare	legs	generic	25	pink	50	False	feps
35	3155	truth_conditions	bare	ears	generic	26	pink	90	True	elleps
35	12071	truth_conditions	danger-distinct	tails	generic	27	green	90	True	trufts
35	4892	truth_conditions	bare	feathers	generic	28	purple	10	False	lorches
35	7312	truth_conditions	nondistinctive	fur	generic	29	copper	30	False	kweps
36	21378	truth_conditions	bare	feathers	generic	0	gold	70	True	plovs
36	9476	truth_conditions	bare	tails	generic	1	orange	10	True	zorbs
36	4439	truth_conditions	bare	shells	generic	2	purple	10	True	javs
36	12847	truth_conditions	nondistinctive	spots	generic	3	red	30	False	sapers
36	5192	truth_conditions	bare	scales	generic	4	yellow	50	True	dorbs
36	10328	truth_conditions	danger-distinct	stripes	generic	5	copper	10	True	mooks
36	10784	truth_conditions	danger-distinct	scales	generic	6	blue	50	True	reesles
36	6608	truth_conditions	danger-distinct	fur	generic	7	silver	70	True	morseths
36	22920	truth_conditions	nondistinctive	fur	generic	8	copper	90	True	kweps
36	8416	truth_conditions	nondistinctive	scales	generic	9	red	70	True	blins
36	14816	truth_conditions	danger-distinct	legs	generic	10	yellow	30	True	ludinos
36	6920	truth_conditions	nondistinctive	teeth	generic	11	blue	10	True	thups
36	7649	truth_conditions	nondistinctive	shells	generic	12	green	50	True	moxes
36	7680	truth_conditions	bare	legs	generic	13	silver	10	True	ackles
36	8799	truth_conditions	nondistinctive	tails	generic	14	green	30	True	trufts
36	8112	truth_conditions	nondistinctive	stripes	generic	15	silver	70	True	frams
36	4720	truth_conditions	bare	fur	generic	16	yellow	70	True	ollers
36	6519	truth_conditions	danger-distinct	feathers	generic	17	red	70	True	noobs
36	7191	truth_conditions	nondistinctive	legs	generic	18	pink	30	True	feps
36	4321	truth_conditions	nondistinctive	ears	generic	19	blue	90	True	cheebas
36	6071	truth_conditions	danger-distinct	shells	generic	20	orange	90	True	luzaks
36	4977	truth_conditions	bare	ears	generic	21	orange	90	True	kazzes
36	4401	truth_conditions	danger-distinct	tails	generic	22	purple	90	True	taifels
36	6848	truth_conditions	bare	spots	generic	23	copper	50	True	glippets
36	4952	truth_conditions	danger-distinct	ears	generic	24	pink	50	True	elleps
36	18759	truth_conditions	danger-distinct	spots	generic	25	gold	50	True	stups
36	4616	truth_conditions	bare	teeth	generic	26	green	30	True	zoovs
36	5640	truth_conditions	nondistinctive	feathers	generic	27	purple	30	True	lorches
36	5240	truth_conditions	bare	stripes	generic	28	gold	90	True	daiths
36	4137	truth_conditions	danger-distinct	teeth	generic	29	pink	10	True	krivels
37	6909	truth_conditions	bare	ears	generic	0	orange	10	False	kazzes
37	12324	truth_conditions	danger-distinct	ears	generic	1	pink	50	True	elleps
37	4943	truth_conditions	bare	shells	generic	2	purple	50	True	javs
37	4333	truth_conditions	bare	stripes	generic	3	copper	70	True	mooks
37	6744	truth_conditions	nondistinctive	shells	generic	4	orange	30	False	luzaks
37	2538	truth_conditions	bare	tails	generic	5	purple	70	True	taifels
37	9052	truth_conditions	nondistinctive	fur	generic	6	copper	90	True	kweps
37	3570	truth_conditions	bare	legs	generic	7	pink	70	True	feps
37	6612	truth_conditions	danger-distinct	feathers	generic	8	purple	90	True	lorches
37	3563	truth_conditions	nondistinctive	legs	generic	9	yellow	70	True	ludinos
37	2638	truth_conditions	bare	scales	generic	10	blue	10	False	reesles
37	8126	truth_conditions	danger-distinct	fur	generic	11	yellow	10	True	ollers
37	6271	truth_conditions	danger-distinct	legs	generic	12	silver	90	True	ackles
37	4683	truth_conditions	nondistinctive	spots	generic	13	gold	90	True	stups
37	6803	truth_conditions	bare	feathers	generic	14	gold	30	False	plovs
37	5045	truth_conditions	nondistinctive	feathers	generic	15	red	30	False	noobs
37	3919	truth_conditions	danger-distinct	stripes	generic	16	silver	70	True	frams
37	2744	truth_conditions	nondistinctive	tails	generic	17	green	10	False	trufts
37	1726	truth_conditions	danger-distinct	tails	generic	18	orange	10	True	zorbs
37	2082	truth_conditions	nondistinctive	ears	generic	19	blue	90	True	cheebas
37	2157	truth_conditions	bare	spots	generic	20	red	90	True	sapers
37	3977	truth_conditions	danger-distinct	scales	generic	21	red	50	True	blins
37	8617	truth_conditions	nondistinctive	scales	generic	22	yellow	50	True	dorbs
37	6061	truth_conditions	bare	teeth	generic	23	blue	30	True	thups
37	3312	truth_conditions	danger-distinct	shells	generic	24	green	10	True	moxes
37	5615	truth_conditions	danger-distinct	spots	generic	25	copper	30	True	glippets
37	7647	truth_conditions	nondistinctive	teeth	generic	26	pink	50	True	krivels
37	3584	truth_conditions	nondistinctive	stripes	generic	27	gold	70	True	daiths
37	4633	truth_conditions	bare	fur	generic	28	silver	30	False	morseths
37	4569	truth_conditions	danger-distinct	teeth	generic	29	green	50	True	zoovs
38	13624	truth_conditions	danger-distinct	scales	generic	0	blue	50	True	reesles
38	10359	truth_conditions	danger-distinct	fur	generic	1	yellow	50	True	ollers
38	6508	truth_conditions	danger-distinct	tails	generic	2	green	50	True	trufts
38	6586	truth_conditions	danger-distinct	ears	generic	3	pink	10	True	elleps
38	6588	truth_conditions	bare	stripes	generic	4	silver	70	True	frams
38	5614	truth_conditions	danger-distinct	spots	generic	5	copper	90	True	glippets
38	2641	truth_conditions	danger-distinct	legs	generic	6	yellow	50	True	ludinos
38	2836	truth_conditions	bare	fur	generic	7	silver	30	True	morseths
38	4513	truth_conditions	nondistinctive	shells	generic	8	purple	90	True	javs
38	4296	truth_conditions	nondistinctive	tails	generic	9	purple	10	True	taifels
38	4818	truth_conditions	bare	ears	generic	10	blue	10	True	cheebas
38	8379	truth_conditions	danger-distinct	stripes	generic	11	copper	30	True	mooks
38	3533	truth_conditions	nondistinctive	spots	generic	12	gold	90	True	stups
38	2831	truth_conditions	bare	feathers	generic	13	red	30	True	noobs
38	7718	truth_conditions	nondistinctive	ears	generic	14	orange	10	True	kazzes
38	3265	truth_conditions	nondistinctive	legs	generic	15	pink	50	True	feps
38	2452	truth_conditions	bare	teeth	generic	16	green	90	True	zoovs
38	4628	truth_conditions	nondistinctive	fur	generic	17	copper	30	True	kweps
38	2802	truth_conditions	bare	tails	generic	18	orange	30	True	zorbs
38	2782	truth_conditions	bare	legs	generic	19	silver	70	True	ackles
38	3284	truth_conditions	danger-distinct	shells	generic	20	orange	30	True	luzaks
38	2631	truth_conditions	nondistinctive	feathers	generic	21	gold	90	True	plovs
38	3134	truth_conditions	bare	spots	generic	22	red	70	True	sapers
38	2718	truth_conditions	danger-distinct	feathers	generic	23	purple	70	True	lorches
38	2567	truth_conditions	bare	scales	generic	24	red	10	True	blins
38	3597	truth_conditions	danger-distinct	teeth	generic	25	blue	10	True	thups
38	2588	truth_conditions	bare	shells	generic	26	green	50	True	moxes
38	2213	truth_conditions	nondistinctive	stripes	generic	27	gold	90	True	daiths
38	2282	truth_conditions	nondistinctive	scales	generic	28	yellow	70	True	dorbs
38	2286	truth_conditions	nondistinctive	teeth	generic	29	pink	70	True	krivels
39	4088	truth_conditions	nondistinctive	tails	generic	0	purple	50	False	taifels
39	2455	truth_conditions	nondistinctive	scales	generic	1	yellow	50	False	dorbs
39	2244	truth_conditions	danger-distinct	feathers	generic	2	purple	70	True	lorches
39	3042	truth_conditions	danger-distinct	ears	generic	3	orange	30	True	kazzes
39	2712	truth_conditions	danger-distinct	shells	generic	4	orange	30	True	luzaks
39	2154	truth_conditions	bare	tails	generic	5	green	70	True	trufts
39	1418	truth_conditions	bare	ears	generic	6	pink	50	False	elleps
39	1814	truth_conditions	nondistinctive	ears	generic	7	blue	10	False	cheebas
39	2226	truth_conditions	danger-distinct	stripes	generic	8	silver	10	False	frams
39	3860	truth_conditions	danger-distinct	legs	generic	9	yellow	50	True	ludinos
39	1958	truth_conditions	danger-distinct	tails	generic	10	orange	30	False	zorbs
39	1544	truth_conditions	bare	shells	generic	11	purple	70	True	javs
39	1370	truth_conditions	bare	spots	generic	12	gold	50	False	stups
39	2569	truth_conditions	nondistinctive	teeth	generic	13	blue	90	True	thups
39	2960	truth_conditions	danger-distinct	scales	generic	14	blue	90	True	reesles
39	5353	truth_conditions	nondistinctive	fur	generic	15	yellow	10	False	ollers
39	6178	truth_conditions	bare	teeth	generic	16	green	70	True	zoovs
39	5032	truth_conditions	bare	feathers	generic	17	gold	90	True	plovs
39	2887	truth_conditions	bare	stripes	generic	18	copper	10	False	mooks
39	1929	truth_conditions	nondistinctive	legs	generic	19	pink	90	True	feps
39	2447	truth_conditions	bare	legs	generic	20	silver	70	True	ackles
39	2071	truth_conditions	danger-distinct	spots	generic	21	red	30	True	sapers
39	2358	truth_conditions	nondistinctive	shells	generic	22	green	10	False	moxes
39	5590	truth_conditions	danger-distinct	fur	generic	23	silver	70	False	morseths
39	2463	truth_conditions	nondistinctive	spots	generic	24	copper	30	False	glippets
39	1616	truth_conditions	nondistinctive	stripes	generic	25	gold	90	True	daiths
39	1321	truth_conditions	bare	fur	generic	26	copper	10	False	kweps
39	1224	truth_conditions	bare	scales	generic	27	red	90	True	blins
39	2204	truth_conditions	nondistinctive	feathers	generic	28	red	30	False	noobs
39	1349	truth_conditions	danger-distinct	teeth	generic	29	pink	50	True	krivels