workerid	rt	trial_type	stim_type	stim_part	stim_determiner	trialNum	stim_color	stim_prevalence	response	stim_category
0	11517	truth_conditions	distinct	stripes	generic	0	copper	10	True	mooks
0	6152	truth_conditions	irrelevant	stripes	generic	1	silver	30	True	frams
0	5017	truth_conditions	distinct	teeth	generic	2	green	90	True	zoovs
0	3634	truth_conditions	bare	ears	generic	3	blue	70	True	cheebas
0	4168	truth_conditions	distinct	ears	generic	4	pink	50	True	elleps
0	4614	truth_conditions	distinct	shells	generic	5	orange	90	True	luzaks
0	3936	truth_conditions	bare	teeth	generic	6	pink	70	True	krivels
0	4750	truth_conditions	distinct	scales	generic	7	blue	10	True	reesles
0	4390	truth_conditions	irrelevant	spots	generic	8	gold	70	True	stups
0	3276	truth_conditions	bare	spots	generic	9	copper	10	True	glippets
0	3265	truth_conditions	irrelevant	ears	generic	10	orange	50	True	kazzes
0	4700	truth_conditions	irrelevant	teeth	generic	11	blue	30	True	thups
0	4685	truth_conditions	distinct	spots	generic	12	red	70	True	sapers
0	4417	truth_conditions	irrelevant	scales	generic	13	yellow	10	True	dorbs
0	3114	truth_conditions	bare	scales	generic	14	red	90	True	blins
0	3083	truth_conditions	bare	legs	generic	15	yellow	50	True	ludinos
0	4468	truth_conditions	irrelevant	feathers	generic	16	red	10	True	noobs
0	3900	truth_conditions	irrelevant	shells	generic	17	purple	90	True	javs
0	2866	truth_conditions	bare	tails	generic	18	orange	90	True	zorbs
0	3500	truth_conditions	bare	shells	generic	19	green	50	True	moxes
0	3166	truth_conditions	irrelevant	legs	generic	20	pink	90	True	feps
0	4666	truth_conditions	distinct	legs	generic	21	silver	30	True	ackles
0	3473	truth_conditions	distinct	tails	generic	22	purple	70	True	taifels
0	3281	truth_conditions	bare	stripes	generic	23	gold	10	True	daiths
0	3880	truth_conditions	distinct	fur	generic	24	yellow	50	True	ollers
0	3632	truth_conditions	distinct	feathers	generic	25	gold	30	True	plovs
0	3283	truth_conditions	bare	fur	generic	26	silver	30	True	morseths
0	3434	truth_conditions	irrelevant	tails	generic	27	green	70	True	trufts
0	3100	truth_conditions	irrelevant	fur	generic	28	copper	50	True	kweps
0	2850	truth_conditions	bare	feathers	generic	29	purple	30	True	lorches
1	6853	truth_conditions	bare	fur	generic	0	silver	90	True	morseths
1	5854	truth_conditions	distinct	scales	generic	1	blue	90	True	reesles
1	3808	truth_conditions	bare	legs	generic	2	yellow	30	False	ludinos
1	9978	truth_conditions	irrelevant	fur	generic	3	copper	30	False	kweps
1	6941	truth_conditions	irrelevant	stripes	generic	4	silver	50	True	frams
1	5198	truth_conditions	bare	feathers	generic	5	purple	30	False	lorches
1	10196	truth_conditions	distinct	stripes	generic	6	copper	10	True	mooks
1	6571	truth_conditions	irrelevant	legs	generic	7	pink	70	True	feps
1	6091	truth_conditions	distinct	teeth	generic	8	green	50	True	zoovs
1	5152	truth_conditions	distinct	feathers	generic	9	gold	90	True	plovs
1	4658	truth_conditions	bare	stripes	generic	10	gold	10	False	daiths
1	7734	truth_conditions	distinct	ears	generic	11	pink	70	True	elleps
1	11594	truth_conditions	irrelevant	shells	generic	12	purple	10	False	javs
1	3812	truth_conditions	irrelevant	scales	generic	13	yellow	30	False	dorbs
1	2218	truth_conditions	bare	ears	generic	14	blue	70	True	cheebas
1	3688	truth_conditions	distinct	shells	generic	15	orange	70	True	luzaks
1	1803	truth_conditions	distinct	legs	generic	16	silver	30	False	ackles
1	3439	truth_conditions	irrelevant	teeth	generic	17	blue	90	True	thups
1	1895	truth_conditions	irrelevant	tails	generic	18	green	10	False	trufts
1	3190	truth_conditions	irrelevant	spots	generic	19	gold	70	True	stups
1	4304	truth_conditions	distinct	fur	generic	20	yellow	50	True	ollers
1	2975	truth_conditions	bare	scales	generic	21	red	50	True	blins
1	2472	truth_conditions	distinct	tails	generic	22	purple	30	False	taifels
1	1627	truth_conditions	bare	teeth	generic	23	pink	70	True	krivels
1	2691	truth_conditions	irrelevant	ears	generic	24	orange	90	True	kazzes
1	2791	truth_conditions	bare	shells	generic	25	green	50	True	moxes
1	4063	truth_conditions	irrelevant	feathers	generic	26	red	50	True	noobs
1	2662	truth_conditions	bare	tails	generic	27	orange	10	False	zorbs
1	3041	truth_conditions	bare	spots	generic	28	copper	90	True	glippets
1	2321	truth_conditions	distinct	spots	generic	29	red	10	False	sapers
2	5929	truth_conditions	bare	scales	generic	0	red	50	True	blins
2	44291	truth_conditions	distinct	ears	generic	1	pink	70	True	elleps
2	28942	truth_conditions	distinct	fur	generic	2	yellow	70	True	ollers
2	3641	truth_conditions	irrelevant	stripes	generic	3	silver	50	True	frams
2	2150	truth_conditions	bare	ears	generic	4	blue	70	True	cheebas
2	4968	truth_conditions	irrelevant	spots	generic	5	gold	50	True	stups
2	5448	truth_conditions	distinct	scales	generic	6	blue	30	False	reesles
2	5831	truth_conditions	distinct	feathers	generic	7	gold	30	False	plovs
2	1871	truth_conditions	distinct	shells	generic	8	orange	50	True	luzaks
2	3735	truth_conditions	bare	shells	generic	9	green	50	True	moxes
2	1479	truth_conditions	bare	tails	generic	10	orange	90	True	zorbs
2	4208	truth_conditions	irrelevant	tails	generic	11	green	70	True	trufts
2	2368	truth_conditions	irrelevant	scales	generic	12	yellow	70	True	dorbs
2	1479	truth_conditions	distinct	teeth	generic	13	green	90	True	zoovs
2	1807	truth_conditions	bare	stripes	generic	14	gold	30	False	daiths
2	2952	truth_conditions	bare	teeth	generic	15	pink	10	False	krivels
2	1392	truth_conditions	bare	spots	generic	16	copper	90	True	glippets
2	2232	truth_conditions	irrelevant	ears	generic	17	orange	90	True	kazzes
2	3231	truth_conditions	distinct	spots	generic	18	red	50	True	sapers
2	13834	truth_conditions	distinct	legs	generic	19	silver	10	False	ackles
2	2822	truth_conditions	bare	legs	generic	20	yellow	70	True	ludinos
2	2385	truth_conditions	bare	fur	generic	21	silver	10	False	morseths
2	1871	truth_conditions	irrelevant	fur	generic	22	copper	10	False	kweps
2	2041	truth_conditions	irrelevant	shells	generic	23	purple	30	False	javs
2	3799	truth_conditions	distinct	tails	generic	24	purple	90	True	taifels
2	5895	truth_conditions	irrelevant	feathers	generic	25	red	30	False	noobs
2	3769	truth_conditions	distinct	stripes	generic	26	copper	10	False	mooks
2	3080	truth_conditions	irrelevant	legs	generic	27	pink	10	False	feps
2	2144	truth_conditions	bare	feathers	generic	28	purple	30	False	lorches
2	2919	truth_conditions	irrelevant	teeth	generic	29	blue	90	True	thups
3	10732	truth_conditions	irrelevant	teeth	generic	0	blue	70	True	thups
3	9073	truth_conditions	irrelevant	feathers	generic	1	red	90	True	noobs
3	11828	truth_conditions	distinct	shells	generic	2	orange	70	True	luzaks
3	10866	truth_conditions	distinct	legs	generic	3	silver	90	True	ackles
3	6556	truth_conditions	bare	legs	generic	4	yellow	30	True	ludinos
3	5427	truth_conditions	bare	spots	generic	5	copper	50	True	glippets
3	8467	truth_conditions	irrelevant	scales	generic	6	yellow	30	True	dorbs
3	10357	truth_conditions	distinct	stripes	generic	7	copper	50	True	mooks
3	9576	truth_conditions	irrelevant	ears	generic	8	orange	50	True	kazzes
3	4946	truth_conditions	bare	ears	generic	9	blue	90	True	cheebas
3	9892	truth_conditions	irrelevant	fur	generic	10	copper	10	True	kweps
3	6929	truth_conditions	irrelevant	spots	generic	11	gold	30	True	stups
3	4200	truth_conditions	bare	feathers	generic	12	purple	70	True	lorches
3	4866	truth_conditions	bare	teeth	generic	13	pink	10	True	krivels
3	4990	truth_conditions	bare	shells	generic	14	green	90	True	moxes
3	3685	truth_conditions	bare	tails	generic	15	orange	30	True	zorbs
3	10438	truth_conditions	distinct	spots	generic	16	red	50	True	sapers
3	6284	truth_conditions	distinct	scales	generic	17	blue	30	True	reesles
3	7284	truth_conditions	irrelevant	shells	generic	18	purple	50	True	javs
3	6341	truth_conditions	distinct	feathers	generic	19	gold	10	True	plovs
3	5474	truth_conditions	bare	scales	generic	20	red	70	True	blins
3	5233	truth_conditions	bare	stripes	generic	21	gold	50	True	daiths
3	6972	truth_conditions	distinct	tails	generic	22	purple	90	True	taifels
3	8097	truth_conditions	distinct	ears	generic	23	pink	70	True	elleps
3	8432	truth_conditions	irrelevant	legs	generic	24	pink	70	True	feps
3	4163	truth_conditions	bare	fur	generic	25	silver	10	True	morseths
3	8061	truth_conditions	irrelevant	stripes	generic	26	silver	90	True	frams
3	7938	truth_conditions	irrelevant	tails	generic	27	green	10	True	trufts
3	9407	truth_conditions	distinct	fur	generic	28	yellow	10	True	ollers
3	8490	truth_conditions	distinct	teeth	generic	29	green	30	True	zoovs
4	9286	truth_conditions	bare	fur	generic	0	silver	70	False	morseths
4	2899	truth_conditions	bare	tails	generic	1	orange	50	False	zorbs
4	2506	truth_conditions	bare	ears	generic	2	blue	10	False	cheebas
4	7029	truth_conditions	irrelevant	shells	generic	3	purple	70	True	javs
4	3045	truth_conditions	bare	legs	generic	4	yellow	10	True	ludinos
4	2739	truth_conditions	irrelevant	scales	generic	5	yellow	50	True	dorbs
4	2388	truth_conditions	irrelevant	legs	generic	6	pink	90	True	feps
4	4064	truth_conditions	distinct	spots	generic	7	red	10	True	sapers
4	9600	truth_conditions	irrelevant	tails	generic	8	green	30	True	trufts
4	3074	truth_conditions	distinct	stripes	generic	9	copper	50	True	mooks
4	4212	truth_conditions	irrelevant	teeth	generic	10	blue	70	True	thups
4	14683	truth_conditions	distinct	fur	generic	11	yellow	90	True	ollers
4	7892	truth_conditions	distinct	ears	generic	12	pink	10	True	elleps
4	2949	truth_conditions	bare	scales	generic	13	red	90	True	blins
4	3385	truth_conditions	irrelevant	fur	generic	14	copper	30	True	kweps
4	2570	truth_conditions	irrelevant	stripes	generic	15	silver	50	True	frams
4	3437	truth_conditions	distinct	legs	generic	16	silver	30	True	ackles
4	3056	truth_conditions	bare	feathers	generic	17	purple	30	True	lorches
4	3803	truth_conditions	irrelevant	ears	generic	18	orange	10	True	kazzes
4	3808	truth_conditions	bare	spots	generic	19	copper	70	True	glippets
4	1893	truth_conditions	bare	shells	generic	20	green	90	True	moxes
4	4424	truth_conditions	distinct	feathers	generic	21	gold	70	True	plovs
4	3170	truth_conditions	distinct	shells	generic	22	orange	30	True	luzaks
4	4199	truth_conditions	irrelevant	spots	generic	23	gold	10	False	stups
4	3628	truth_conditions	bare	teeth	generic	24	pink	30	True	krivels
4	3910	truth_conditions	distinct	teeth	generic	25	green	90	True	zoovs
4	3212	truth_conditions	distinct	scales	generic	26	blue	70	True	reesles
4	2538	truth_conditions	distinct	tails	generic	27	purple	50	True	taifels
4	1931	truth_conditions	irrelevant	feathers	generic	28	red	90	True	noobs
4	3740	truth_conditions	bare	stripes	generic	29	gold	50	True	daiths
5	11890	truth_conditions	irrelevant	scales	generic	0	yellow	10	True	dorbs
5	28221	truth_conditions	irrelevant	spots	generic	1	gold	30	True	stups
5	7100	truth_conditions	distinct	shells	generic	2	orange	30	False	luzaks
5	5839	truth_conditions	irrelevant	fur	generic	3	copper	70	True	kweps
5	8159	truth_conditions	bare	teeth	generic	4	pink	10	False	krivels
5	3958	truth_conditions	bare	feathers	generic	5	purple	30	False	lorches
5	5202	truth_conditions	distinct	stripes	generic	6	copper	50	False	mooks
5	5668	truth_conditions	distinct	scales	generic	7	blue	90	True	reesles
5	5500	truth_conditions	irrelevant	stripes	generic	8	silver	90	True	frams
5	5655	truth_conditions	distinct	legs	generic	9	silver	30	False	ackles
5	4759	truth_conditions	bare	fur	generic	10	silver	90	True	morseths
5	4537	truth_conditions	bare	tails	generic	11	orange	70	True	zorbs
5	3155	truth_conditions	distinct	fur	generic	12	yellow	70	False	ollers
5	3639	truth_conditions	bare	spots	generic	13	copper	30	False	glippets
5	3502	truth_conditions	distinct	feathers	generic	14	gold	70	False	plovs
5	4572	truth_conditions	bare	scales	generic	15	red	70	True	blins
5	10020	truth_conditions	irrelevant	tails	generic	16	green	50	False	trufts
5	33313	truth_conditions	distinct	teeth	generic	17	green	10	False	zoovs
5	4165	truth_conditions	irrelevant	ears	generic	18	orange	70	True	kazzes
5	3563	truth_conditions	irrelevant	teeth	generic	19	blue	30	False	thups
5	3451	truth_conditions	bare	ears	generic	20	blue	50	False	cheebas
5	3286	truth_conditions	irrelevant	feathers	generic	21	red	10	False	noobs
5	2992	truth_conditions	bare	shells	generic	22	green	90	True	moxes
5	20173	truth_conditions	distinct	tails	generic	23	purple	10	False	taifels
5	4913	truth_conditions	bare	stripes	generic	24	gold	10	False	daiths
5	5257	truth_conditions	distinct	ears	generic	25	pink	90	True	elleps
5	2941	truth_conditions	bare	legs	generic	26	yellow	50	False	ludinos
5	4683	truth_conditions	irrelevant	shells	generic	27	purple	50	False	javs
5	4003	truth_conditions	distinct	spots	generic	28	red	50	False	sapers
5	5196	truth_conditions	irrelevant	legs	generic	29	pink	90	False	feps
6	14493	truth_conditions	distinct	stripes	generic	0	copper	30	True	mooks
6	11722	truth_conditions	irrelevant	ears	generic	1	orange	90	True	kazzes
6	5458	truth_conditions	distinct	shells	generic	2	orange	90	True	luzaks
6	7418	truth_conditions	irrelevant	teeth	generic	3	blue	10	False	thups
6	5459	truth_conditions	distinct	teeth	generic	4	green	90	True	zoovs
6	7949	truth_conditions	distinct	ears	generic	5	pink	30	False	elleps
6	4295	truth_conditions	bare	feathers	generic	6	purple	30	False	lorches
6	8060	truth_conditions	distinct	feathers	generic	7	gold	50	True	plovs
6	3820	truth_conditions	irrelevant	tails	generic	8	green	70	True	trufts
6	2456	truth_conditions	bare	spots	generic	9	copper	70	True	glippets
6	7087	truth_conditions	irrelevant	legs	generic	10	pink	50	True	feps
6	3213	truth_conditions	bare	shells	generic	11	green	90	True	moxes
6	9791	truth_conditions	distinct	fur	generic	12	yellow	50	True	ollers
6	12286	truth_conditions	distinct	tails	generic	13	purple	10	True	taifels
6	8086	truth_conditions	irrelevant	spots	generic	14	gold	50	True	stups
6	14455	truth_conditions	distinct	scales	generic	15	blue	10	False	reesles
6	2723	truth_conditions	bare	fur	generic	16	silver	70	True	morseths
6	4510	truth_conditions	bare	tails	generic	17	orange	10	False	zorbs
6	7904	truth_conditions	irrelevant	shells	generic	18	purple	70	True	javs
6	9487	truth_conditions	irrelevant	feathers	generic	19	red	30	False	noobs
6	4020	truth_conditions	bare	teeth	generic	20	pink	10	False	krivels
6	3935	truth_conditions	irrelevant	scales	generic	21	yellow	30	False	dorbs
6	5674	truth_conditions	irrelevant	stripes	generic	22	silver	90	True	frams
6	2316	truth_conditions	bare	scales	generic	23	red	50	True	blins
6	4243	truth_conditions	distinct	legs	generic	24	silver	70	True	ackles
6	2660	truth_conditions	bare	legs	generic	25	yellow	50	True	ludinos
6	3818	truth_conditions	distinct	spots	generic	26	red	70	True	sapers
6	4992	truth_conditions	irrelevant	fur	generic	27	copper	10	False	kweps
6	2647	truth_conditions	bare	stripes	generic	28	gold	90	True	daiths
6	2335	truth_conditions	bare	ears	generic	29	blue	30	False	cheebas
7	12186	truth_conditions	distinct	ears	generic	0	pink	50	True	elleps
7	6509	truth_conditions	distinct	feathers	generic	1	gold	50	True	plovs
7	6247	truth_conditions	irrelevant	scales	generic	2	yellow	30	False	dorbs
7	9853	truth_conditions	bare	ears	generic	3	blue	70	True	cheebas
7	2669	truth_conditions	bare	tails	generic	4	orange	30	False	zorbs
7	4734	truth_conditions	irrelevant	stripes	generic	5	silver	50	True	frams
7	2575	truth_conditions	bare	feathers	generic	6	purple	10	False	lorches
7	2431	truth_conditions	bare	shells	generic	7	green	10	False	moxes
7	6205	truth_conditions	irrelevant	tails	generic	8	green	10	False	trufts
7	44100	truth_conditions	distinct	teeth	generic	9	green	10	False	zoovs
7	2329	truth_conditions	bare	stripes	generic	10	gold	50	True	daiths
7	2774	truth_conditions	irrelevant	shells	generic	11	purple	30	False	javs
7	3411	truth_conditions	distinct	scales	generic	12	blue	10	False	reesles
7	3262	truth_conditions	irrelevant	legs	generic	13	pink	90	True	feps
7	3488	truth_conditions	bare	legs	generic	14	yellow	90	True	ludinos
7	2534	truth_conditions	distinct	tails	generic	15	purple	30	False	taifels
7	2742	truth_conditions	distinct	fur	generic	16	yellow	30	False	ollers
7	2393	truth_conditions	bare	teeth	generic	17	pink	90	True	krivels
7	3064	truth_conditions	distinct	spots	generic	18	red	90	True	sapers
7	2146	truth_conditions	bare	spots	generic	19	copper	50	True	glippets
7	3074	truth_conditions	irrelevant	teeth	generic	20	blue	70	True	thups
7	3515	truth_conditions	irrelevant	spots	generic	21	gold	90	True	stups
7	2129	truth_conditions	irrelevant	fur	generic	22	copper	70	True	kweps
7	3291	truth_conditions	irrelevant	feathers	generic	23	red	10	False	noobs
7	2216	truth_conditions	bare	scales	generic	24	red	30	False	blins
7	3069	truth_conditions	bare	fur	generic	25	silver	70	True	morseths
7	3592	truth_conditions	distinct	stripes	generic	26	copper	90	True	mooks
7	3053	truth_conditions	irrelevant	ears	generic	27	orange	50	True	kazzes
7	4731	truth_conditions	distinct	shells	generic	28	orange	70	True	luzaks
7	2802	truth_conditions	distinct	legs	generic	29	silver	70	True	ackles
8	8590	truth_conditions	bare	fur	generic	0	silver	90	True	morseths
8	7367	truth_conditions	distinct	spots	generic	1	red	90	True	sapers
8	18837	truth_conditions	distinct	legs	generic	2	silver	70	True	ackles
8	9147	truth_conditions	bare	ears	generic	3	blue	30	False	cheebas
8	4922	truth_conditions	irrelevant	tails	generic	4	green	90	True	trufts
8	6653	truth_conditions	distinct	tails	generic	5	purple	30	False	taifels
8	2673	truth_conditions	bare	shells	generic	6	green	50	True	moxes
8	9770	truth_conditions	bare	feathers	generic	7	purple	90	True	lorches
8	10246	truth_conditions	irrelevant	spots	generic	8	gold	30	True	stups
8	5339	truth_conditions	bare	stripes	generic	9	gold	10	True	daiths
8	3247	truth_conditions	bare	scales	generic	10	red	30	True	blins
8	4148	truth_conditions	distinct	ears	generic	11	pink	70	True	elleps
8	3920	truth_conditions	irrelevant	stripes	generic	12	silver	30	True	frams
8	4668	truth_conditions	distinct	stripes	generic	13	copper	10	False	mooks
8	1999	truth_conditions	bare	spots	generic	14	copper	70	True	glippets
8	3071	truth_conditions	distinct	fur	generic	15	yellow	90	True	ollers
8	2806	truth_conditions	bare	teeth	generic	16	pink	70	True	krivels
8	2464	truth_conditions	bare	legs	generic	17	yellow	10	False	ludinos
8	2983	truth_conditions	distinct	feathers	generic	18	gold	50	True	plovs
8	1808	truth_conditions	irrelevant	feathers	generic	19	red	70	True	noobs
8	1542	truth_conditions	distinct	shells	generic	20	orange	50	True	luzaks
8	2652	truth_conditions	irrelevant	legs	generic	21	pink	50	True	feps
8	3284	truth_conditions	irrelevant	shells	generic	22	purple	10	False	javs
8	2380	truth_conditions	bare	tails	generic	23	orange	50	True	zorbs
8	2084	truth_conditions	irrelevant	ears	generic	24	orange	70	True	kazzes
8	1701	truth_conditions	irrelevant	fur	generic	25	copper	90	True	kweps
8	3187	truth_conditions	irrelevant	teeth	generic	26	blue	10	False	thups
8	8276	truth_conditions	distinct	teeth	generic	27	green	30	False	zoovs
8	3279	truth_conditions	irrelevant	scales	generic	28	yellow	50	True	dorbs
8	10821	truth_conditions	distinct	scales	generic	29	blue	10	False	reesles
9	19139	truth_conditions	irrelevant	tails	generic	0	green	70	True	trufts
9	39494	truth_conditions	irrelevant	spots	generic	1	gold	90	False	stups
9	6490	truth_conditions	bare	shells	generic	2	green	70	False	moxes
9	7175	truth_conditions	irrelevant	legs	generic	3	pink	90	False	feps
9	7454	truth_conditions	distinct	scales	generic	4	blue	70	False	reesles
9	5128	truth_conditions	bare	stripes	generic	5	gold	50	False	daiths
9	9022	truth_conditions	distinct	fur	generic	6	yellow	90	False	ollers
9	9247	truth_conditions	distinct	legs	generic	7	silver	10	False	ackles
9	5678	truth_conditions	distinct	shells	generic	8	orange	70	False	luzaks
9	5580	truth_conditions	irrelevant	feathers	generic	9	red	50	False	noobs
9	5637	truth_conditions	bare	feathers	generic	10	purple	90	False	lorches
9	5485	truth_conditions	distinct	feathers	generic	11	gold	90	False	plovs
9	5356	truth_conditions	bare	spots	generic	12	copper	10	False	glippets
9	7039	truth_conditions	distinct	tails	generic	13	purple	50	False	taifels
9	5226	truth_conditions	bare	ears	generic	14	blue	90	False	cheebas
9	6548	truth_conditions	irrelevant	teeth	generic	15	blue	10	False	thups
9	5533	truth_conditions	distinct	ears	generic	16	pink	30	False	elleps
9	2727	truth_conditions	bare	scales	generic	17	red	10	False	blins
9	5177	truth_conditions	irrelevant	stripes	generic	18	silver	10	False	frams
9	4352	truth_conditions	distinct	stripes	generic	19	copper	10	False	mooks
9	5132	truth_conditions	distinct	spots	generic	20	red	30	False	sapers
9	4312	truth_conditions	bare	teeth	generic	21	pink	50	False	krivels
9	6447	truth_conditions	irrelevant	scales	generic	22	yellow	30	False	dorbs
9	2882	truth_conditions	bare	legs	generic	23	yellow	30	False	ludinos
9	5418	truth_conditions	irrelevant	ears	generic	24	orange	50	False	kazzes
9	5772	truth_conditions	irrelevant	shells	generic	25	purple	70	False	javs
9	2900	truth_conditions	bare	fur	generic	26	silver	70	False	morseths
9	3901	truth_conditions	irrelevant	fur	generic	27	copper	30	False	kweps
9	2581	truth_conditions	distinct	teeth	generic	28	green	50	False	zoovs
9	2420	truth_conditions	bare	tails	generic	29	orange	30	False	zorbs
10	5304	truth_conditions	bare	scales	generic	0	red	90	True	blins
10	4189	truth_conditions	distinct	legs	generic	1	silver	10	False	ackles
10	3304	truth_conditions	irrelevant	ears	generic	2	orange	50	True	kazzes
10	4352	truth_conditions	bare	fur	generic	3	silver	10	False	morseths
10	3053	truth_conditions	irrelevant	legs	generic	4	pink	10	False	feps
10	3388	truth_conditions	bare	shells	generic	5	green	10	False	moxes
10	9043	truth_conditions	distinct	fur	generic	6	yellow	30	False	ollers
10	2167	truth_conditions	distinct	teeth	generic	7	green	90	True	zoovs
10	3221	truth_conditions	irrelevant	stripes	generic	8	silver	10	False	frams
10	5787	truth_conditions	distinct	tails	generic	9	purple	50	True	taifels
10	3906	truth_conditions	bare	legs	generic	10	yellow	90	True	ludinos
10	5022	truth_conditions	irrelevant	tails	generic	11	green	30	False	trufts
10	2785	truth_conditions	irrelevant	shells	generic	12	purple	70	True	javs
10	1772	truth_conditions	distinct	spots	generic	13	red	30	False	sapers
10	1965	truth_conditions	bare	tails	generic	14	orange	70	True	zorbs
10	2234	truth_conditions	bare	teeth	generic	15	pink	30	False	krivels
10	1954	truth_conditions	distinct	shells	generic	16	orange	90	True	luzaks
10	1567	truth_conditions	bare	spots	generic	17	copper	50	True	glippets
10	2388	truth_conditions	bare	ears	generic	18	blue	70	True	cheebas
10	3868	truth_conditions	distinct	ears	generic	19	pink	70	True	elleps
10	2420	truth_conditions	irrelevant	fur	generic	20	copper	90	True	kweps
10	2618	truth_conditions	irrelevant	spots	generic	21	gold	50	True	stups
10	2385	truth_conditions	distinct	scales	generic	22	blue	70	True	reesles
10	1937	truth_conditions	irrelevant	teeth	generic	23	blue	70	True	thups
10	1550	truth_conditions	bare	stripes	generic	24	gold	50	True	daiths
10	1836	truth_conditions	bare	feathers	generic	25	purple	30	False	lorches
10	2233	truth_conditions	irrelevant	scales	generic	26	yellow	30	False	dorbs
10	1436	truth_conditions	distinct	feathers	generic	27	gold	50	True	plovs
10	1502	truth_conditions	irrelevant	feathers	generic	28	red	90	True	noobs
10	1349	truth_conditions	distinct	stripes	generic	29	copper	10	False	mooks
11	6193	truth_conditions	bare	fur	generic	0	silver	90	True	morseths
11	6260	truth_conditions	distinct	ears	generic	1	pink	10	False	elleps
11	5514	truth_conditions	bare	feathers	generic	2	purple	70	True	lorches
11	3438	truth_conditions	distinct	teeth	generic	3	green	90	True	zoovs
11	3036	truth_conditions	distinct	shells	generic	4	orange	70	True	luzaks
11	2038	truth_conditions	bare	teeth	generic	5	pink	10	False	krivels
11	4186	truth_conditions	irrelevant	fur	generic	6	copper	50	True	kweps
11	1795	truth_conditions	irrelevant	ears	generic	7	orange	50	True	kazzes
11	2169	truth_conditions	distinct	tails	generic	8	purple	30	False	taifels
11	2652	truth_conditions	irrelevant	teeth	generic	9	blue	70	False	thups
11	2643	truth_conditions	distinct	stripes	generic	10	copper	70	True	mooks
11	3057	truth_conditions	irrelevant	stripes	generic	11	silver	30	False	frams
11	2701	truth_conditions	distinct	scales	generic	12	blue	50	True	reesles
11	2039	truth_conditions	irrelevant	scales	generic	13	yellow	10	False	dorbs
11	2106	truth_conditions	irrelevant	shells	generic	14	purple	70	True	javs
11	1855	truth_conditions	bare	stripes	generic	15	gold	50	True	daiths
11	2431	truth_conditions	bare	shells	generic	16	green	30	False	moxes
11	2229	truth_conditions	irrelevant	tails	generic	17	green	10	False	trufts
11	1805	truth_conditions	irrelevant	legs	generic	18	pink	90	True	feps
11	4553	truth_conditions	bare	scales	generic	19	red	10	False	blins
11	4024	truth_conditions	bare	legs	generic	20	yellow	30	False	ludinos
11	1937	truth_conditions	distinct	feathers	generic	21	gold	90	True	plovs
11	2793	truth_conditions	irrelevant	feathers	generic	22	red	90	True	noobs
11	2441	truth_conditions	irrelevant	spots	generic	23	gold	30	False	stups
11	1926	truth_conditions	distinct	legs	generic	24	silver	50	True	ackles
11	2270	truth_conditions	bare	tails	generic	25	orange	50	True	zorbs
11	2048	truth_conditions	bare	ears	generic	26	blue	70	True	cheebas
11	3095	truth_conditions	distinct	spots	generic	27	red	30	False	sapers
11	1979	truth_conditions	distinct	fur	generic	28	yellow	10	False	ollers
11	3013	truth_conditions	bare	spots	generic	29	copper	90	True	glippets
12	29611	truth_conditions	bare	stripes	generic	0	gold	90	True	daiths
12	5801	truth_conditions	irrelevant	spots	generic	1	gold	30	False	stups
12	8570	truth_conditions	distinct	teeth	generic	2	green	30	False	zoovs
12	5121	truth_conditions	distinct	feathers	generic	3	gold	30	False	plovs
12	4441	truth_conditions	distinct	stripes	generic	4	copper	10	False	mooks
12	3549	truth_conditions	bare	tails	generic	5	orange	30	False	zorbs
12	5112	truth_conditions	irrelevant	tails	generic	6	green	50	True	trufts
12	3807	truth_conditions	irrelevant	legs	generic	7	pink	90	True	feps
12	4648	truth_conditions	irrelevant	ears	generic	8	orange	10	False	kazzes
12	4323	truth_conditions	distinct	fur	generic	9	yellow	70	True	ollers
12	4402	truth_conditions	irrelevant	stripes	generic	10	silver	50	True	frams
12	4016	truth_conditions	irrelevant	feathers	generic	11	red	30	False	noobs
12	2535	truth_conditions	bare	scales	generic	12	red	70	True	blins
12	3953	truth_conditions	bare	teeth	generic	13	pink	10	False	krivels
12	2388	truth_conditions	bare	feathers	generic	14	purple	90	True	lorches
12	4033	truth_conditions	irrelevant	fur	generic	15	copper	10	False	kweps
12	2284	truth_conditions	bare	ears	generic	16	blue	10	False	cheebas
12	1917	truth_conditions	bare	legs	generic	17	yellow	50	True	ludinos
12	2711	truth_conditions	irrelevant	teeth	generic	18	blue	70	True	thups
12	3687	truth_conditions	irrelevant	shells	generic	19	purple	90	True	javs
12	3631	truth_conditions	distinct	ears	generic	20	pink	90	True	elleps
12	4263	truth_conditions	irrelevant	scales	generic	21	yellow	70	True	dorbs
12	5179	truth_conditions	distinct	tails	generic	22	purple	50	True	taifels
12	3743	truth_conditions	bare	fur	generic	23	silver	70	True	morseths
12	2606	truth_conditions	distinct	spots	generic	24	red	90	True	sapers
12	2797	truth_conditions	bare	spots	generic	25	copper	30	False	glippets
12	4428	truth_conditions	distinct	legs	generic	26	silver	70	True	ackles
12	3542	truth_conditions	distinct	shells	generic	27	orange	50	True	luzaks
12	3938	truth_conditions	distinct	scales	generic	28	blue	10	False	reesles
12	3788	truth_conditions	bare	shells	generic	29	green	50	True	moxes
13	8405	truth_conditions	bare	feathers	generic	0	purple	70	True	lorches
13	7361	truth_conditions	irrelevant	feathers	generic	1	red	90	True	noobs
13	7510	truth_conditions	distinct	tails	generic	2	purple	10	False	taifels
13	8545	truth_conditions	distinct	shells	generic	3	orange	10	False	luzaks
13	4570	truth_conditions	distinct	ears	generic	4	pink	30	False	elleps
13	5064	truth_conditions	distinct	fur	generic	5	yellow	90	True	ollers
13	9880	truth_conditions	irrelevant	legs	generic	6	pink	10	False	feps
13	3979	truth_conditions	bare	fur	generic	7	silver	70	True	morseths
13	4703	truth_conditions	irrelevant	teeth	generic	8	blue	50	True	thups
13	6557	truth_conditions	bare	stripes	generic	9	gold	30	False	daiths
13	5876	truth_conditions	distinct	teeth	generic	10	green	70	True	zoovs
13	7151	truth_conditions	irrelevant	scales	generic	11	yellow	50	True	dorbs
13	8537	truth_conditions	irrelevant	spots	generic	12	gold	70	True	stups
13	7830	truth_conditions	distinct	legs	generic	13	silver	30	False	ackles
13	4989	truth_conditions	distinct	scales	generic	14	blue	50	True	reesles
13	4718	truth_conditions	distinct	spots	generic	15	red	90	True	sapers
13	6547	truth_conditions	irrelevant	tails	generic	16	green	10	False	trufts
13	3211	truth_conditions	bare	scales	generic	17	red	90	True	blins
13	3384	truth_conditions	bare	legs	generic	18	yellow	10	False	ludinos
13	5338	truth_conditions	bare	ears	generic	19	blue	10	False	cheebas
13	4507	truth_conditions	bare	shells	generic	20	green	50	True	moxes
13	3294	truth_conditions	bare	teeth	generic	21	pink	50	True	krivels
13	4966	truth_conditions	bare	tails	generic	22	orange	90	True	zorbs
13	6869	truth_conditions	irrelevant	shells	generic	23	purple	90	True	javs
13	4445	truth_conditions	irrelevant	ears	generic	24	orange	30	False	kazzes
13	8400	truth_conditions	distinct	stripes	generic	25	copper	70	True	mooks
13	6274	truth_conditions	irrelevant	fur	generic	26	copper	30	False	kweps
13	5434	truth_conditions	distinct	feathers	generic	27	gold	50	True	plovs
13	4361	truth_conditions	irrelevant	stripes	generic	28	silver	70	True	frams
13	5621	truth_conditions	bare	spots	generic	29	copper	30	False	glippets
14	13359	truth_conditions	irrelevant	stripes	generic	0	silver	50	True	frams
14	10538	truth_conditions	distinct	feathers	generic	1	gold	70	True	plovs
14	13433	truth_conditions	irrelevant	shells	generic	2	purple	70	True	javs
14	8218	truth_conditions	bare	teeth	generic	3	pink	50	False	krivels
14	9708	truth_conditions	distinct	tails	generic	4	purple	10	False	taifels
14	3421	truth_conditions	bare	shells	generic	5	green	70	True	moxes
14	4565	truth_conditions	bare	fur	generic	6	silver	90	True	morseths
14	5837	truth_conditions	bare	stripes	generic	7	gold	30	False	daiths
14	6504	truth_conditions	irrelevant	legs	generic	8	pink	30	False	feps
14	7657	truth_conditions	distinct	spots	generic	9	red	10	False	sapers
14	10789	truth_conditions	irrelevant	tails	generic	10	green	30	True	trufts
14	4146	truth_conditions	distinct	ears	generic	11	pink	70	True	elleps
14	4678	truth_conditions	bare	tails	generic	12	orange	30	True	zorbs
14	4101	truth_conditions	irrelevant	teeth	generic	13	blue	90	True	thups
14	4504	truth_conditions	distinct	scales	generic	14	blue	30	True	reesles
14	6030	truth_conditions	distinct	fur	generic	15	yellow	50	True	ollers
14	3069	truth_conditions	bare	feathers	generic	16	purple	10	False	lorches
14	5625	truth_conditions	irrelevant	ears	generic	17	orange	70	True	kazzes
14	3891	truth_conditions	irrelevant	spots	generic	18	gold	10	False	stups
14	8013	truth_conditions	distinct	shells	generic	19	orange	50	True	luzaks
14	4006	truth_conditions	bare	scales	generic	20	red	90	True	blins
14	2772	truth_conditions	bare	ears	generic	21	blue	10	False	cheebas
14	3568	truth_conditions	distinct	stripes	generic	22	copper	90	True	mooks
14	3608	truth_conditions	bare	legs	generic	23	yellow	50	True	ludinos
14	3930	truth_conditions	irrelevant	feathers	generic	24	red	10	False	noobs
14	2584	truth_conditions	bare	spots	generic	25	copper	70	True	glippets
14	6203	truth_conditions	irrelevant	scales	generic	26	yellow	50	True	dorbs
14	11359	truth_conditions	distinct	legs	generic	27	silver	90	True	ackles
14	3268	truth_conditions	irrelevant	fur	generic	28	copper	90	True	kweps
14	3992	truth_conditions	distinct	teeth	generic	29	green	30	True	zoovs
15	12530	truth_conditions	irrelevant	spots	generic	0	gold	70	True	stups
15	7751	truth_conditions	irrelevant	feathers	generic	1	red	30	False	noobs
15	6810	truth_conditions	irrelevant	legs	generic	2	pink	10	False	feps
15	6793	truth_conditions	bare	fur	generic	3	silver	70	True	morseths
15	6151	truth_conditions	irrelevant	tails	generic	4	green	90	True	trufts
15	10097	truth_conditions	distinct	legs	generic	5	silver	30	False	ackles
15	7202	truth_conditions	bare	ears	generic	6	blue	50	False	cheebas
15	7888	truth_conditions	distinct	ears	generic	7	pink	50	False	elleps
15	6457	truth_conditions	bare	stripes	generic	8	gold	30	False	daiths
15	7297	truth_conditions	distinct	teeth	generic	9	green	70	True	zoovs
15	4949	truth_conditions	irrelevant	ears	generic	10	orange	90	True	kazzes
15	5126	truth_conditions	irrelevant	scales	generic	11	yellow	70	True	dorbs
15	6326	truth_conditions	irrelevant	shells	generic	12	purple	10	False	javs
15	4857	truth_conditions	distinct	shells	generic	13	orange	50	False	luzaks
15	5555	truth_conditions	irrelevant	stripes	generic	14	silver	50	False	frams
15	4319	truth_conditions	bare	tails	generic	15	orange	10	False	zorbs
15	8030	truth_conditions	distinct	spots	generic	16	red	90	True	sapers
15	5585	truth_conditions	distinct	feathers	generic	17	gold	10	False	plovs
15	4159	truth_conditions	bare	spots	generic	18	copper	90	True	glippets
15	5162	truth_conditions	irrelevant	teeth	generic	19	blue	30	False	thups
15	5376	truth_conditions	bare	teeth	generic	20	pink	50	False	krivels
15	5184	truth_conditions	distinct	tails	generic	21	purple	90	True	taifels
15	4577	truth_conditions	bare	scales	generic	22	red	90	True	blins
15	4055	truth_conditions	bare	legs	generic	23	yellow	30	False	ludinos
15	9145	truth_conditions	distinct	fur	generic	24	yellow	10	False	ollers
15	3936	truth_conditions	bare	shells	generic	25	green	10	False	moxes
15	4610	truth_conditions	distinct	stripes	generic	26	copper	70	True	mooks
15	7202	truth_conditions	distinct	scales	generic	27	blue	30	False	reesles
15	3478	truth_conditions	bare	feathers	generic	28	purple	70	True	lorches
15	7980	truth_conditions	irrelevant	fur	generic	29	copper	50	False	kweps
16	32486	truth_conditions	distinct	fur	generic	0	yellow	50	True	ollers
16	7199	truth_conditions	irrelevant	fur	generic	1	copper	50	True	kweps
16	4590	truth_conditions	bare	legs	generic	2	yellow	90	True	ludinos
16	5455	truth_conditions	distinct	shells	generic	3	orange	70	True	luzaks
16	4292	truth_conditions	distinct	legs	generic	4	silver	90	True	ackles
16	5169	truth_conditions	irrelevant	scales	generic	5	yellow	10	False	dorbs
16	5077	truth_conditions	irrelevant	spots	generic	6	gold	90	True	stups
16	4095	truth_conditions	distinct	stripes	generic	7	copper	50	True	mooks
16	4535	truth_conditions	distinct	tails	generic	8	purple	90	True	taifels
16	4207	truth_conditions	irrelevant	teeth	generic	9	blue	70	True	thups
16	3332	truth_conditions	bare	stripes	generic	10	gold	30	False	daiths
16	3781	truth_conditions	irrelevant	legs	generic	11	pink	30	False	feps
16	3602	truth_conditions	bare	tails	generic	12	orange	70	True	zorbs
16	4278	truth_conditions	distinct	scales	generic	13	blue	30	False	reesles
16	3519	truth_conditions	bare	fur	generic	14	silver	50	True	morseths
16	2943	truth_conditions	bare	shells	generic	15	green	50	True	moxes
16	4249	truth_conditions	irrelevant	ears	generic	16	orange	70	True	kazzes
16	2957	truth_conditions	bare	ears	generic	17	blue	70	True	cheebas
16	4480	truth_conditions	irrelevant	stripes	generic	18	silver	90	True	frams
16	4054	truth_conditions	distinct	ears	generic	19	pink	10	False	elleps
16	12010	truth_conditions	distinct	feathers	generic	20	gold	30	False	plovs
16	6428	truth_conditions	irrelevant	tails	generic	21	green	10	False	trufts
16	5950	truth_conditions	bare	scales	generic	22	red	30	False	blins
16	2383	truth_conditions	bare	teeth	generic	23	pink	90	True	krivels
16	4399	truth_conditions	irrelevant	feathers	generic	24	red	30	False	noobs
16	8779	truth_conditions	bare	spots	generic	25	copper	10	False	glippets
16	3540	truth_conditions	distinct	spots	generic	26	red	10	False	sapers
16	2271	truth_conditions	irrelevant	shells	generic	27	purple	50	True	javs
16	2797	truth_conditions	bare	feathers	generic	28	purple	10	False	lorches
16	3173	truth_conditions	distinct	teeth	generic	29	green	70	True	zoovs
17	9825	truth_conditions	distinct	legs	generic	0	silver	10	True	ackles
17	9592	truth_conditions	distinct	spots	generic	1	red	70	False	sapers
17	7287	truth_conditions	irrelevant	teeth	generic	2	blue	70	True	thups
17	6731	truth_conditions	irrelevant	shells	generic	3	purple	90	True	javs
17	4638	truth_conditions	irrelevant	scales	generic	4	yellow	50	False	dorbs
17	10351	truth_conditions	distinct	ears	generic	5	pink	50	False	elleps
17	8391	truth_conditions	distinct	teeth	generic	6	green	10	False	zoovs
17	5488	truth_conditions	bare	legs	generic	7	yellow	30	True	ludinos
17	7481	truth_conditions	irrelevant	tails	generic	8	green	30	False	trufts
17	5248	truth_conditions	irrelevant	legs	generic	9	pink	90	True	feps
17	3937	truth_conditions	bare	fur	generic	10	silver	50	True	morseths
17	4857	truth_conditions	irrelevant	spots	generic	11	gold	50	False	stups
17	3032	truth_conditions	distinct	fur	generic	12	yellow	70	True	ollers
17	3561	truth_conditions	irrelevant	stripes	generic	13	silver	10	False	frams
17	2279	truth_conditions	bare	tails	generic	14	orange	30	True	zorbs
17	2953	truth_conditions	bare	stripes	generic	15	gold	10	True	daiths
17	5343	truth_conditions	irrelevant	ears	generic	16	orange	10	False	kazzes
17	4872	truth_conditions	distinct	tails	generic	17	purple	30	True	taifels
17	3761	truth_conditions	bare	shells	generic	18	green	70	True	moxes
17	2560	truth_conditions	bare	teeth	generic	19	pink	10	True	krivels
17	4697	truth_conditions	distinct	shells	generic	20	orange	50	True	luzaks
17	2720	truth_conditions	bare	spots	generic	21	copper	50	True	glippets
17	4640	truth_conditions	distinct	feathers	generic	22	gold	90	True	plovs
17	5393	truth_conditions	irrelevant	feathers	generic	23	red	30	False	noobs
17	2648	truth_conditions	bare	scales	generic	24	red	70	True	blins
17	1561	truth_conditions	bare	feathers	generic	25	purple	90	True	lorches
17	3216	truth_conditions	irrelevant	fur	generic	26	copper	70	False	kweps
17	2184	truth_conditions	distinct	scales	generic	27	blue	90	True	reesles
17	4665	truth_conditions	distinct	stripes	generic	28	copper	30	False	mooks
17	1832	truth_conditions	bare	ears	generic	29	blue	90	True	cheebas
18	39158	truth_conditions	distinct	teeth	generic	0	green	10	True	zoovs
18	12000	truth_conditions	irrelevant	tails	generic	1	green	70	True	trufts
18	12064	truth_conditions	irrelevant	scales	generic	2	yellow	10	True	dorbs
18	7885	truth_conditions	distinct	shells	generic	3	orange	70	True	luzaks
18	6367	truth_conditions	bare	spots	generic	4	copper	90	True	glippets
18	9551	truth_conditions	distinct	spots	generic	5	red	70	True	sapers
18	7590	truth_conditions	bare	ears	generic	6	blue	50	True	cheebas
18	8908	truth_conditions	bare	legs	generic	7	yellow	50	True	ludinos
18	5733	truth_conditions	bare	scales	generic	8	red	90	True	blins
18	6524	truth_conditions	bare	shells	generic	9	green	10	True	moxes
18	7244	truth_conditions	distinct	feathers	generic	10	gold	30	True	plovs
18	5031	truth_conditions	irrelevant	teeth	generic	11	blue	50	True	thups
18	5467	truth_conditions	bare	feathers	generic	12	purple	30	True	lorches
18	5182	truth_conditions	bare	tails	generic	13	orange	10	True	zorbs
18	6100	truth_conditions	bare	fur	generic	14	silver	30	True	morseths
18	5133	truth_conditions	distinct	stripes	generic	15	copper	90	True	mooks
18	6900	truth_conditions	irrelevant	feathers	generic	16	red	30	True	noobs
18	6933	truth_conditions	distinct	scales	generic	17	blue	50	True	reesles
18	4734	truth_conditions	bare	teeth	generic	18	pink	70	True	krivels
18	5547	truth_conditions	distinct	fur	generic	19	yellow	90	True	ollers
18	6304	truth_conditions	distinct	legs	generic	20	silver	50	True	ackles
18	4936	truth_conditions	bare	stripes	generic	21	gold	70	True	daiths
18	4930	truth_conditions	distinct	ears	generic	22	pink	30	True	elleps
18	5830	truth_conditions	irrelevant	spots	generic	23	gold	90	True	stups
18	5565	truth_conditions	irrelevant	shells	generic	24	purple	70	True	javs
18	7436	truth_conditions	irrelevant	legs	generic	25	pink	50	True	feps
18	5486	truth_conditions	distinct	tails	generic	26	purple	10	True	taifels
18	11609	truth_conditions	irrelevant	fur	generic	27	copper	10	True	kweps
18	7019	truth_conditions	irrelevant	stripes	generic	28	silver	90	True	frams
18	6333	truth_conditions	irrelevant	ears	generic	29	orange	30	True	kazzes
19	15793	truth_conditions	bare	tails	generic	0	orange	50	True	zorbs
19	12535	truth_conditions	irrelevant	legs	generic	1	pink	30	True	feps
19	10703	truth_conditions	bare	ears	generic	2	blue	70	True	cheebas
19	12744	truth_conditions	bare	teeth	generic	3	pink	30	True	krivels
19	16408	truth_conditions	distinct	stripes	generic	4	copper	10	False	mooks
19	10032	truth_conditions	bare	shells	generic	5	green	10	False	moxes
19	12390	truth_conditions	distinct	legs	generic	6	silver	30	True	ackles
19	13672	truth_conditions	irrelevant	fur	generic	7	copper	10	False	kweps
19	11344	truth_conditions	irrelevant	teeth	generic	8	blue	70	True	thups
19	44832	truth_conditions	irrelevant	tails	generic	9	green	90	True	trufts
19	4217	truth_conditions	distinct	teeth	generic	10	green	90	True	zoovs
19	5767	truth_conditions	bare	spots	generic	11	copper	10	False	glippets
19	3608	truth_conditions	bare	feathers	generic	12	purple	50	True	lorches
19	6608	truth_conditions	irrelevant	spots	generic	13	gold	90	True	stups
19	7064	truth_conditions	irrelevant	feathers	generic	14	red	50	True	noobs
19	4414	truth_conditions	distinct	spots	generic	15	red	10	False	sapers
19	7816	truth_conditions	distinct	fur	generic	16	yellow	70	True	ollers
19	5840	truth_conditions	bare	stripes	generic	17	gold	90	True	daiths
19	7767	truth_conditions	irrelevant	shells	generic	18	purple	70	True	javs
19	9128	truth_conditions	distinct	scales	generic	19	blue	50	True	reesles
19	6520	truth_conditions	distinct	feathers	generic	20	gold	70	True	plovs
19	5017	truth_conditions	irrelevant	stripes	generic	21	silver	30	True	frams
19	6232	truth_conditions	bare	legs	generic	22	yellow	30	True	ludinos
19	6344	truth_conditions	distinct	shells	generic	23	orange	90	True	luzaks
19	10152	truth_conditions	distinct	ears	generic	24	pink	30	True	elleps
19	4233	truth_conditions	bare	fur	generic	25	silver	70	True	morseths
19	7487	truth_conditions	irrelevant	scales	generic	26	yellow	10	False	dorbs
19	2808	truth_conditions	bare	scales	generic	27	red	90	True	blins
19	4287	truth_conditions	irrelevant	ears	generic	28	orange	50	True	kazzes
19	7168	truth_conditions	distinct	tails	generic	29	purple	50	True	taifels
20	14951	truth_conditions	bare	tails	generic	0	orange	90	False	zorbs
20	8147	truth_conditions	bare	feathers	generic	1	purple	30	True	lorches
20	8690	truth_conditions	irrelevant	scales	generic	2	yellow	70	True	dorbs
20	15593	truth_conditions	distinct	teeth	generic	3	green	10	True	zoovs
20	9007	truth_conditions	irrelevant	tails	generic	4	green	50	True	trufts
20	5937	truth_conditions	bare	stripes	generic	5	gold	30	True	daiths
20	10036	truth_conditions	bare	scales	generic	6	red	10	True	blins
20	6781	truth_conditions	bare	ears	generic	7	blue	70	True	cheebas
20	27523	truth_conditions	irrelevant	legs	generic	8	pink	30	True	feps
20	7161	truth_conditions	irrelevant	teeth	generic	9	blue	50	True	thups
20	18949	truth_conditions	irrelevant	feathers	generic	10	red	10	True	noobs
20	9931	truth_conditions	distinct	shells	generic	11	orange	30	True	luzaks
20	9702	truth_conditions	irrelevant	stripes	generic	12	silver	90	True	frams
20	6438	truth_conditions	bare	legs	generic	13	yellow	10	True	ludinos
20	5190	truth_conditions	bare	shells	generic	14	green	50	True	moxes
20	11704	truth_conditions	distinct	spots	generic	15	red	50	True	sapers
20	8197	truth_conditions	distinct	ears	generic	16	pink	10	True	elleps
20	10883	truth_conditions	irrelevant	fur	generic	17	copper	10	True	kweps
20	19068	truth_conditions	distinct	scales	generic	18	blue	70	True	reesles
20	10314	truth_conditions	distinct	feathers	generic	19	gold	50	True	plovs
20	13533	truth_conditions	irrelevant	shells	generic	20	purple	90	True	javs
20	5073	truth_conditions	bare	fur	generic	21	silver	50	True	morseths
20	11558	truth_conditions	distinct	stripes	generic	22	copper	90	True	mooks
20	9269	truth_conditions	irrelevant	spots	generic	23	gold	70	True	stups
20	11952	truth_conditions	irrelevant	ears	generic	24	orange	30	True	kazzes
20	9280	truth_conditions	distinct	legs	generic	25	silver	30	True	ackles
20	8116	truth_conditions	bare	spots	generic	26	copper	70	True	glippets
20	10181	truth_conditions	bare	teeth	generic	27	pink	90	True	krivels
20	11013	truth_conditions	distinct	fur	generic	28	yellow	90	True	ollers
20	8655	truth_conditions	distinct	tails	generic	29	purple	70	True	taifels
21	15712	truth_conditions	irrelevant	scales	generic	0	yellow	10	True	dorbs
21	3694	truth_conditions	distinct	scales	generic	1	blue	70	False	reesles
21	8701	truth_conditions	distinct	legs	generic	2	silver	90	True	ackles
21	7621	truth_conditions	bare	stripes	generic	3	gold	90	True	daiths
21	7363	truth_conditions	distinct	spots	generic	4	red	50	False	sapers
21	5606	truth_conditions	distinct	ears	generic	5	pink	30	False	elleps
21	6396	truth_conditions	irrelevant	teeth	generic	6	blue	70	True	thups
21	3925	truth_conditions	irrelevant	tails	generic	7	green	30	False	trufts
21	4817	truth_conditions	irrelevant	stripes	generic	8	silver	90	True	frams
21	4167	truth_conditions	distinct	shells	generic	9	orange	10	False	luzaks
21	3299	truth_conditions	irrelevant	feathers	generic	10	red	90	True	noobs
21	3850	truth_conditions	bare	fur	generic	11	silver	70	True	morseths
21	3132	truth_conditions	bare	legs	generic	12	yellow	30	False	ludinos
21	3009	truth_conditions	bare	ears	generic	13	blue	30	False	cheebas
21	2956	truth_conditions	bare	teeth	generic	14	pink	10	False	krivels
21	5478	truth_conditions	irrelevant	legs	generic	15	pink	50	True	feps
21	3494	truth_conditions	irrelevant	ears	generic	16	orange	30	False	kazzes
21	4922	truth_conditions	bare	spots	generic	17	copper	10	False	glippets
21	4553	truth_conditions	bare	shells	generic	18	green	90	True	moxes
21	2707	truth_conditions	bare	tails	generic	19	orange	70	True	zorbs
21	7412	truth_conditions	irrelevant	shells	generic	20	purple	50	True	javs
21	3387	truth_conditions	bare	scales	generic	21	red	50	True	blins
21	5485	truth_conditions	irrelevant	spots	generic	22	gold	70	True	stups
21	3955	truth_conditions	distinct	fur	generic	23	yellow	90	True	ollers
21	3986	truth_conditions	irrelevant	fur	generic	24	copper	10	False	kweps
21	4647	truth_conditions	distinct	teeth	generic	25	green	10	False	zoovs
21	4587	truth_conditions	distinct	feathers	generic	26	gold	30	False	plovs
21	5620	truth_conditions	bare	feathers	generic	27	purple	50	True	lorches
21	9109	truth_conditions	distinct	stripes	generic	28	copper	70	True	mooks
21	5366	truth_conditions	distinct	tails	generic	29	purple	50	True	taifels
22	19778	truth_conditions	irrelevant	spots	generic	0	gold	50	True	stups
22	18561	truth_conditions	distinct	spots	generic	1	red	90	True	sapers
22	14068	truth_conditions	distinct	stripes	generic	2	copper	50	True	mooks
22	16764	truth_conditions	distinct	shells	generic	3	orange	30	True	luzaks
22	9079	truth_conditions	bare	spots	generic	4	copper	50	True	glippets
22	22370	truth_conditions	distinct	ears	generic	5	pink	10	True	elleps
22	9217	truth_conditions	irrelevant	feathers	generic	6	red	50	True	noobs
22	10561	truth_conditions	bare	tails	generic	7	orange	30	True	zorbs
22	12169	truth_conditions	irrelevant	fur	generic	8	copper	70	True	kweps
22	5543	truth_conditions	bare	teeth	generic	9	pink	90	True	krivels
22	9373	truth_conditions	irrelevant	legs	generic	10	pink	30	True	feps
22	6114	truth_conditions	irrelevant	scales	generic	11	yellow	90	True	dorbs
22	4956	truth_conditions	irrelevant	stripes	generic	12	silver	90	True	frams
22	8704	truth_conditions	distinct	fur	generic	13	yellow	70	True	ollers
22	5631	truth_conditions	irrelevant	ears	generic	14	orange	70	True	kazzes
22	5726	truth_conditions	distinct	teeth	generic	15	green	90	True	zoovs
22	7013	truth_conditions	distinct	feathers	generic	16	gold	70	True	plovs
22	18939	truth_conditions	irrelevant	shells	generic	17	purple	10	False	javs
22	4678	truth_conditions	bare	fur	generic	18	silver	90	True	morseths
22	8412	truth_conditions	irrelevant	teeth	generic	19	blue	30	True	thups
22	4782	truth_conditions	bare	legs	generic	20	yellow	10	False	ludinos
22	8285	truth_conditions	distinct	legs	generic	21	silver	10	True	ackles
22	3895	truth_conditions	bare	stripes	generic	22	gold	70	True	daiths
22	5111	truth_conditions	distinct	scales	generic	23	blue	50	True	reesles
22	4239	truth_conditions	bare	ears	generic	24	blue	10	False	cheebas
22	4509	truth_conditions	bare	feathers	generic	25	purple	50	True	lorches
22	9731	truth_conditions	bare	shells	generic	26	green	30	True	moxes
22	7309	truth_conditions	irrelevant	tails	generic	27	green	10	False	trufts
22	4800	truth_conditions	bare	scales	generic	28	red	70	True	blins
22	6093	truth_conditions	distinct	tails	generic	29	purple	30	True	taifels
23	28313	truth_conditions	bare	teeth	generic	0	pink	70	False	krivels
23	11373	truth_conditions	bare	ears	generic	1	blue	10	False	cheebas
23	6994	truth_conditions	bare	feathers	generic	2	purple	50	False	lorches
23	8501	truth_conditions	distinct	tails	generic	3	purple	50	True	taifels
23	10161	truth_conditions	bare	stripes	generic	4	gold	30	False	daiths
23	5012	truth_conditions	bare	scales	generic	5	red	90	True	blins
23	7368	truth_conditions	distinct	feathers	generic	6	gold	30	False	plovs
23	6212	truth_conditions	distinct	stripes	generic	7	copper	30	True	mooks
23	14203	truth_conditions	distinct	scales	generic	8	blue	70	True	reesles
23	10557	truth_conditions	bare	shells	generic	9	green	50	False	moxes
23	6676	truth_conditions	irrelevant	fur	generic	10	copper	70	True	kweps
23	6763	truth_conditions	irrelevant	teeth	generic	11	blue	30	False	thups
23	3999	truth_conditions	distinct	shells	generic	12	orange	70	True	luzaks
23	6231	truth_conditions	distinct	fur	generic	13	yellow	90	True	ollers
23	24222	truth_conditions	distinct	spots	generic	14	red	10	True	sapers
23	5955	truth_conditions	irrelevant	scales	generic	15	yellow	50	False	dorbs
23	5898	truth_conditions	irrelevant	tails	generic	16	green	10	False	trufts
23	4340	truth_conditions	bare	legs	generic	17	yellow	90	True	ludinos
23	6186	truth_conditions	bare	spots	generic	18	copper	70	True	glippets
23	7254	truth_conditions	irrelevant	ears	generic	19	orange	90	True	kazzes
23	7017	truth_conditions	distinct	ears	generic	20	pink	90	True	elleps
23	3199	truth_conditions	irrelevant	feathers	generic	21	red	50	False	noobs
23	28790	truth_conditions	distinct	legs	generic	22	silver	10	False	ackles
23	34147	truth_conditions	irrelevant	spots	generic	23	gold	10	False	stups
23	9878	truth_conditions	bare	tails	generic	24	orange	30	False	zorbs
23	27490	truth_conditions	irrelevant	legs	generic	25	pink	30	False	feps
23	6183	truth_conditions	distinct	teeth	generic	26	green	50	True	zoovs
23	5134	truth_conditions	irrelevant	stripes	generic	27	silver	90	True	frams
23	12064	truth_conditions	irrelevant	shells	generic	28	purple	70	False	javs
23	6993	truth_conditions	bare	fur	generic	29	silver	10	False	morseths
24	14260	truth_conditions	bare	tails	generic	0	orange	50	False	zorbs
24	9078	truth_conditions	irrelevant	tails	generic	1	green	30	False	trufts
24	10270	truth_conditions	distinct	spots	generic	2	red	10	True	sapers
24	9759	truth_conditions	bare	feathers	generic	3	purple	70	False	lorches
24	8759	truth_conditions	irrelevant	shells	generic	4	purple	10	False	javs
24	9279	truth_conditions	irrelevant	legs	generic	5	pink	90	True	feps
24	8863	truth_conditions	distinct	teeth	generic	6	green	50	True	zoovs
24	16703	truth_conditions	irrelevant	fur	generic	7	copper	70	True	kweps
24	8916	truth_conditions	distinct	feathers	generic	8	gold	50	True	plovs
24	7187	truth_conditions	bare	fur	generic	9	silver	10	True	morseths
24	7774	truth_conditions	bare	stripes	generic	10	gold	10	False	daiths
24	9367	truth_conditions	distinct	fur	generic	11	yellow	30	True	ollers
24	9312	truth_conditions	distinct	stripes	generic	12	copper	30	True	mooks
24	7406	truth_conditions	irrelevant	feathers	generic	13	red	30	True	noobs
24	8687	truth_conditions	bare	legs	generic	14	yellow	70	True	ludinos
24	10596	truth_conditions	distinct	shells	generic	15	orange	10	True	luzaks
24	5483	truth_conditions	bare	ears	generic	16	blue	90	True	cheebas
24	5742	truth_conditions	distinct	legs	generic	17	silver	90	True	ackles
24	12672	truth_conditions	distinct	tails	generic	18	purple	90	True	taifels
24	9719	truth_conditions	irrelevant	scales	generic	19	yellow	90	True	dorbs
24	8847	truth_conditions	distinct	scales	generic	20	blue	70	True	reesles
24	6079	truth_conditions	bare	scales	generic	21	red	50	True	blins
24	5855	truth_conditions	bare	spots	generic	22	copper	30	True	glippets
24	10083	truth_conditions	irrelevant	stripes	generic	23	silver	50	True	frams
24	5723	truth_conditions	distinct	ears	generic	24	pink	70	True	elleps
24	6366	truth_conditions	irrelevant	ears	generic	25	orange	50	True	kazzes
24	7687	truth_conditions	irrelevant	spots	generic	26	gold	70	True	stups
24	10208	truth_conditions	irrelevant	teeth	generic	27	blue	10	False	thups
24	5663	truth_conditions	bare	teeth	generic	28	pink	90	True	krivels
24	9526	truth_conditions	bare	shells	generic	29	green	30	True	moxes
25	6101	truth_conditions	irrelevant	stripes	generic	0	silver	30	True	frams
25	8506	truth_conditions	distinct	tails	generic	1	purple	10	False	taifels
25	6261	truth_conditions	distinct	fur	generic	2	yellow	30	False	ollers
25	3904	truth_conditions	irrelevant	spots	generic	3	gold	70	True	stups
25	2843	truth_conditions	bare	fur	generic	4	silver	50	True	morseths
25	2463	truth_conditions	irrelevant	ears	generic	5	orange	50	True	kazzes
25	1717	truth_conditions	bare	teeth	generic	6	pink	10	False	krivels
25	2099	truth_conditions	bare	stripes	generic	7	gold	30	False	daiths
25	2317	truth_conditions	distinct	spots	generic	8	red	50	True	sapers
25	1831	truth_conditions	distinct	teeth	generic	9	green	10	False	zoovs
25	2070	truth_conditions	bare	ears	generic	10	blue	30	False	cheebas
25	1464	truth_conditions	irrelevant	legs	generic	11	pink	30	False	feps
25	1943	truth_conditions	distinct	feathers	generic	12	gold	50	True	plovs
25	2817	truth_conditions	irrelevant	teeth	generic	13	blue	10	False	thups
25	3079	truth_conditions	bare	legs	generic	14	yellow	70	True	ludinos
25	1457	truth_conditions	bare	shells	generic	15	green	90	True	moxes
25	1702	truth_conditions	irrelevant	scales	generic	16	yellow	10	False	dorbs
25	1387	truth_conditions	irrelevant	feathers	generic	17	red	90	True	noobs
25	1293	truth_conditions	bare	scales	generic	18	red	90	True	blins
25	1207	truth_conditions	irrelevant	fur	generic	19	copper	70	True	kweps
25	1431	truth_conditions	irrelevant	tails	generic	20	green	50	True	trufts
25	2202	truth_conditions	bare	spots	generic	21	copper	50	False	glippets
25	1020	truth_conditions	distinct	shells	generic	22	orange	90	True	luzaks
25	1662	truth_conditions	distinct	scales	generic	23	blue	30	False	reesles
25	1654	truth_conditions	bare	feathers	generic	24	purple	10	False	lorches
25	1470	truth_conditions	irrelevant	shells	generic	25	purple	90	False	javs
25	1508	truth_conditions	bare	tails	generic	26	orange	70	False	zorbs
25	1032	truth_conditions	distinct	stripes	generic	27	copper	70	True	mooks
25	824	truth_conditions	distinct	legs	generic	28	silver	90	True	ackles
25	902	truth_conditions	distinct	ears	generic	29	pink	70	True	elleps
26	20914	truth_conditions	distinct	tails	generic	0	purple	10	False	taifels
26	7758	truth_conditions	irrelevant	stripes	generic	1	silver	10	False	frams
26	15138	truth_conditions	irrelevant	legs	generic	2	pink	70	False	feps
26	3642	truth_conditions	bare	legs	generic	3	yellow	30	False	ludinos
26	6878	truth_conditions	distinct	stripes	generic	4	copper	50	False	mooks
26	4551	truth_conditions	bare	shells	generic	5	green	10	False	moxes
26	7199	truth_conditions	distinct	feathers	generic	6	gold	70	False	plovs
26	8349	truth_conditions	distinct	fur	generic	7	yellow	30	False	ollers
26	3825	truth_conditions	bare	scales	generic	8	red	30	False	blins
26	2877	truth_conditions	bare	ears	generic	9	blue	70	False	cheebas
26	5943	truth_conditions	bare	tails	generic	10	orange	90	False	zorbs
26	2735	truth_conditions	bare	feathers	generic	11	purple	10	False	lorches
26	11481	truth_conditions	irrelevant	feathers	generic	12	red	50	False	noobs
26	7258	truth_conditions	distinct	shells	generic	13	orange	30	False	luzaks
26	4642	truth_conditions	bare	stripes	generic	14	gold	90	False	daiths
26	4360	truth_conditions	distinct	scales	generic	15	blue	10	False	reesles
26	5300	truth_conditions	irrelevant	spots	generic	16	gold	30	False	stups
26	2801	truth_conditions	bare	spots	generic	17	copper	50	False	glippets
26	5160	truth_conditions	irrelevant	teeth	generic	18	blue	50	False	thups
26	8210	truth_conditions	distinct	legs	generic	19	silver	90	False	ackles
26	7578	truth_conditions	irrelevant	tails	generic	20	green	70	False	trufts
26	8902	truth_conditions	distinct	teeth	generic	21	green	90	False	zoovs
26	3398	truth_conditions	irrelevant	ears	generic	22	orange	30	False	kazzes
26	3047	truth_conditions	irrelevant	scales	generic	23	yellow	10	False	dorbs
26	4487	truth_conditions	irrelevant	shells	generic	24	purple	90	False	javs
26	2472	truth_conditions	distinct	spots	generic	25	red	70	False	sapers
26	3165	truth_conditions	bare	fur	generic	26	silver	50	False	morseths
26	2279	truth_conditions	bare	teeth	generic	27	pink	70	False	krivels
26	7351	truth_conditions	distinct	ears	generic	28	pink	50	False	elleps
26	3384	truth_conditions	irrelevant	fur	generic	29	copper	90	False	kweps
27	7995	truth_conditions	irrelevant	teeth	generic	0	blue	10	False	thups
27	5771	truth_conditions	irrelevant	legs	generic	1	pink	90	True	feps
27	5232	truth_conditions	distinct	shells	generic	2	orange	70	True	luzaks
27	7340	truth_conditions	distinct	ears	generic	3	pink	30	False	elleps
27	5265	truth_conditions	bare	scales	generic	4	red	10	False	blins
27	3842	truth_conditions	bare	feathers	generic	5	purple	50	True	lorches
27	1787	truth_conditions	bare	ears	generic	6	blue	90	True	cheebas
27	1832	truth_conditions	bare	fur	generic	7	silver	90	True	morseths
27	6210	truth_conditions	distinct	fur	generic	8	yellow	50	True	ollers
27	2866	truth_conditions	distinct	feathers	generic	9	gold	90	True	plovs
27	2137	truth_conditions	bare	spots	generic	10	copper	70	True	glippets
27	2089	truth_conditions	irrelevant	shells	generic	11	purple	30	False	javs
27	5408	truth_conditions	distinct	spots	generic	12	red	50	True	sapers
27	3660	truth_conditions	bare	stripes	generic	13	gold	50	False	daiths
27	2803	truth_conditions	distinct	teeth	generic	14	green	70	True	zoovs
27	1466	truth_conditions	bare	legs	generic	15	yellow	30	False	ludinos
27	2088	truth_conditions	distinct	legs	generic	16	silver	30	False	ackles
27	1668	truth_conditions	distinct	stripes	generic	17	copper	10	False	mooks
27	5892	truth_conditions	irrelevant	scales	generic	18	yellow	50	True	dorbs
27	2508	truth_conditions	irrelevant	fur	generic	19	copper	90	True	kweps
27	3837	truth_conditions	irrelevant	stripes	generic	20	silver	70	True	frams
27	3774	truth_conditions	irrelevant	tails	generic	21	green	70	True	trufts
27	2662	truth_conditions	irrelevant	ears	generic	22	orange	50	True	kazzes
27	1698	truth_conditions	bare	tails	generic	23	orange	30	False	zorbs
27	2053	truth_conditions	distinct	scales	generic	24	blue	90	True	reesles
27	1433	truth_conditions	irrelevant	spots	generic	25	gold	30	False	stups
27	1388	truth_conditions	distinct	tails	generic	26	purple	10	False	taifels
27	1719	truth_conditions	irrelevant	feathers	generic	27	red	10	False	noobs
27	1560	truth_conditions	bare	teeth	generic	28	pink	70	True	krivels
27	1323	truth_conditions	bare	shells	generic	29	green	10	False	moxes
28	44638	truth_conditions	irrelevant	ears	generic	0	orange	70	False	kazzes
28	59360	truth_conditions	bare	spots	generic	1	copper	10	True	glippets
28	30771	truth_conditions	distinct	fur	generic	2	yellow	90	False	ollers
28	8289	truth_conditions	bare	fur	generic	3	silver	70	False	morseths
28	8671	truth_conditions	bare	feathers	generic	4	purple	50	False	lorches
28	6172	truth_conditions	bare	teeth	generic	5	pink	90	False	krivels
28	11223	truth_conditions	distinct	scales	generic	6	blue	50	False	reesles
28	6336	truth_conditions	bare	legs	generic	7	yellow	30	False	ludinos
28	15703	truth_conditions	irrelevant	fur	generic	8	copper	90	False	kweps
28	15866	truth_conditions	irrelevant	teeth	generic	9	blue	90	False	thups
28	15787	truth_conditions	distinct	spots	generic	10	red	30	False	sapers
28	11832	truth_conditions	distinct	tails	generic	11	purple	30	False	taifels
28	9061	truth_conditions	bare	ears	generic	12	blue	70	False	cheebas
28	6417	truth_conditions	bare	scales	generic	13	red	90	False	blins
28	23064	truth_conditions	irrelevant	scales	generic	14	yellow	10	False	dorbs
28	5754	truth_conditions	bare	tails	generic	15	orange	10	False	zorbs
28	16385	truth_conditions	bare	shells	generic	16	green	30	False	moxes
28	12231	truth_conditions	distinct	stripes	generic	17	copper	10	False	mooks
28	8432	truth_conditions	bare	stripes	generic	18	gold	50	False	daiths
28	14151	truth_conditions	distinct	shells	generic	19	orange	70	False	luzaks
28	6900	truth_conditions	distinct	teeth	generic	20	green	70	False	zoovs
28	13648	truth_conditions	distinct	legs	generic	21	silver	10	False	ackles
28	10080	truth_conditions	irrelevant	tails	generic	22	green	30	False	trufts
28	12615	truth_conditions	irrelevant	spots	generic	23	gold	50	False	stups
28	37225	truth_conditions	distinct	feathers	generic	24	gold	50	False	plovs
28	6932	truth_conditions	irrelevant	feathers	generic	25	red	30	False	noobs
28	11071	truth_conditions	distinct	ears	generic	26	pink	90	False	elleps
28	12128	truth_conditions	irrelevant	shells	generic	27	purple	10	False	javs
28	7841	truth_conditions	irrelevant	stripes	generic	28	silver	70	False	frams
28	17611	truth_conditions	irrelevant	legs	generic	29	pink	50	False	feps
29	14587	truth_conditions	irrelevant	shells	generic	0	purple	90	True	javs
29	8935	truth_conditions	bare	teeth	generic	1	pink	10	False	krivels
29	10448	truth_conditions	distinct	tails	generic	2	purple	10	True	taifels
29	3735	truth_conditions	bare	fur	generic	3	silver	10	False	morseths
29	6794	truth_conditions	irrelevant	spots	generic	4	gold	30	True	stups
29	75842	truth_conditions	bare	shells	generic	5	green	90	False	moxes
29	8151	truth_conditions	distinct	shells	generic	6	orange	50	True	luzaks
29	325725	truth_conditions	distinct	legs	generic	7	silver	90	False	ackles
29	10232	truth_conditions	irrelevant	legs	generic	8	pink	70	False	feps
29	7280	truth_conditions	bare	legs	generic	9	yellow	50	False	ludinos
29	21551	truth_conditions	irrelevant	stripes	generic	10	silver	50	False	frams
29	11461	truth_conditions	bare	tails	generic	11	orange	90	False	zorbs
29	20360	truth_conditions	irrelevant	teeth	generic	12	blue	70	False	thups
29	8343	truth_conditions	distinct	teeth	generic	13	green	70	False	zoovs
29	12855	truth_conditions	bare	ears	generic	14	blue	30	False	cheebas
29	5369	truth_conditions	irrelevant	ears	generic	15	orange	10	False	kazzes
29	5512	truth_conditions	irrelevant	feathers	generic	16	red	90	False	noobs
29	7100	truth_conditions	bare	stripes	generic	17	gold	70	False	daiths
29	3536	truth_conditions	irrelevant	fur	generic	18	copper	50	False	kweps
29	7025	truth_conditions	distinct	stripes	generic	19	copper	50	False	mooks
29	32888	truth_conditions	bare	spots	generic	20	copper	50	False	glippets
29	3888	truth_conditions	distinct	ears	generic	21	pink	10	False	elleps
29	4975	truth_conditions	distinct	feathers	generic	22	gold	30	False	plovs
29	2791	truth_conditions	bare	feathers	generic	23	purple	70	False	lorches
29	5268	truth_conditions	irrelevant	scales	generic	24	yellow	30	False	dorbs
29	5975	truth_conditions	distinct	fur	generic	25	yellow	90	False	ollers
29	2840	truth_conditions	bare	scales	generic	26	red	30	False	blins
29	36663	truth_conditions	irrelevant	tails	generic	27	green	10	False	trufts
29	2704	truth_conditions	distinct	spots	generic	28	red	30	False	sapers
29	2753	truth_conditions	distinct	scales	generic	29	blue	70	False	reesles
30	17519	truth_conditions	distinct	spots	generic	0	red	30	False	sapers
30	21107	truth_conditions	irrelevant	tails	generic	1	green	70	True	trufts
30	11384	truth_conditions	distinct	teeth	generic	2	green	10	False	zoovs
30	11283	truth_conditions	irrelevant	scales	generic	3	yellow	30	False	dorbs
30	7426	truth_conditions	irrelevant	ears	generic	4	orange	50	True	kazzes
30	4074	truth_conditions	bare	scales	generic	5	red	50	True	blins
30	4833	truth_conditions	irrelevant	feathers	generic	6	red	50	True	noobs
30	6348	truth_conditions	distinct	scales	generic	7	blue	50	True	reesles
30	4341	truth_conditions	distinct	fur	generic	8	yellow	70	True	ollers
30	4725	truth_conditions	irrelevant	teeth	generic	9	blue	30	False	thups
30	3964	truth_conditions	bare	feathers	generic	10	purple	30	False	lorches
30	5280	truth_conditions	distinct	shells	generic	11	orange	30	False	luzaks
30	4446	truth_conditions	distinct	ears	generic	12	pink	70	True	elleps
30	3401	truth_conditions	irrelevant	stripes	generic	13	silver	10	False	frams
30	3559	truth_conditions	bare	shells	generic	14	green	10	False	moxes
30	2786	truth_conditions	bare	stripes	generic	15	gold	70	True	daiths
30	3706	truth_conditions	distinct	feathers	generic	16	gold	10	False	plovs
30	4607	truth_conditions	bare	teeth	generic	17	pink	90	True	krivels
30	3936	truth_conditions	irrelevant	spots	generic	18	gold	10	False	stups
30	4063	truth_conditions	bare	spots	generic	19	copper	50	True	glippets
30	4083	truth_conditions	bare	legs	generic	20	yellow	90	True	ludinos
30	5132	truth_conditions	distinct	tails	generic	21	purple	90	True	taifels
30	4080	truth_conditions	distinct	legs	generic	22	silver	50	True	ackles
30	4554	truth_conditions	irrelevant	fur	generic	23	copper	90	True	kweps
30	5289	truth_conditions	irrelevant	shells	generic	24	purple	70	True	javs
30	3732	truth_conditions	irrelevant	legs	generic	25	pink	90	True	feps
30	4230	truth_conditions	bare	fur	generic	26	silver	10	False	morseths
30	2638	truth_conditions	bare	ears	generic	27	blue	30	False	cheebas
30	2786	truth_conditions	bare	tails	generic	28	orange	70	True	zorbs
30	6624	truth_conditions	distinct	stripes	generic	29	copper	90	True	mooks
31	29263	truth_conditions	distinct	stripes	generic	0	copper	10	False	mooks
31	9302	truth_conditions	bare	legs	generic	1	yellow	50	True	ludinos
31	8289	truth_conditions	irrelevant	fur	generic	2	copper	70	True	kweps
31	5893	truth_conditions	bare	tails	generic	3	orange	30	False	zorbs
31	5394	truth_conditions	bare	spots	generic	4	copper	90	True	glippets
31	8021	truth_conditions	irrelevant	scales	generic	5	yellow	30	False	dorbs
31	4226	truth_conditions	irrelevant	stripes	generic	6	silver	30	False	frams
31	5764	truth_conditions	distinct	legs	generic	7	silver	90	True	ackles
31	4523	truth_conditions	bare	feathers	generic	8	purple	70	True	lorches
31	2645	truth_conditions	bare	scales	generic	9	red	30	False	blins
31	2535	truth_conditions	bare	stripes	generic	10	gold	10	False	daiths
31	4156	truth_conditions	distinct	spots	generic	11	red	10	False	sapers
31	5088	truth_conditions	irrelevant	legs	generic	12	pink	70	True	feps
31	7175	truth_conditions	distinct	teeth	generic	13	green	50	True	zoovs
31	2366	truth_conditions	bare	teeth	generic	14	pink	10	False	krivels
31	8521	truth_conditions	distinct	scales	generic	15	blue	30	False	reesles
31	6840	truth_conditions	irrelevant	spots	generic	16	gold	10	False	stups
31	2750	truth_conditions	irrelevant	teeth	generic	17	blue	90	True	thups
31	4393	truth_conditions	distinct	shells	generic	18	orange	30	False	luzaks
31	3966	truth_conditions	bare	ears	generic	19	blue	50	True	cheebas
31	4034	truth_conditions	distinct	tails	generic	20	purple	70	True	taifels
31	4705	truth_conditions	irrelevant	ears	generic	21	orange	90	True	kazzes
31	3565	truth_conditions	bare	fur	generic	22	silver	70	True	morseths
31	2044	truth_conditions	bare	shells	generic	23	green	90	True	moxes
31	3420	truth_conditions	irrelevant	shells	generic	24	purple	50	True	javs
31	3472	truth_conditions	distinct	ears	generic	25	pink	50	True	elleps
31	2360	truth_conditions	irrelevant	feathers	generic	26	red	10	False	noobs
31	3265	truth_conditions	irrelevant	tails	generic	27	green	50	True	trufts
31	4609	truth_conditions	distinct	fur	generic	28	yellow	90	True	ollers
31	3695	truth_conditions	distinct	feathers	generic	29	gold	70	True	plovs
32	26759	truth_conditions	irrelevant	stripes	generic	0	silver	10	True	frams
32	9031	truth_conditions	irrelevant	tails	generic	1	green	90	True	trufts
32	9593	truth_conditions	bare	spots	generic	2	copper	50	True	glippets
32	12296	truth_conditions	irrelevant	feathers	generic	3	red	30	True	noobs
32	7643	truth_conditions	bare	stripes	generic	4	gold	30	True	daiths
32	5140	truth_conditions	bare	shells	generic	5	green	90	True	moxes
32	5866	truth_conditions	bare	tails	generic	6	orange	70	True	zorbs
32	4882	truth_conditions	bare	legs	generic	7	yellow	30	True	ludinos
32	9354	truth_conditions	distinct	ears	generic	8	pink	90	True	elleps
32	7511	truth_conditions	irrelevant	scales	generic	9	yellow	30	True	dorbs
32	13887	truth_conditions	distinct	tails	generic	10	purple	70	True	taifels
32	5244	truth_conditions	irrelevant	teeth	generic	11	blue	70	True	thups
32	3717	truth_conditions	bare	teeth	generic	12	pink	90	True	krivels
32	3105	truth_conditions	bare	ears	generic	13	blue	10	True	cheebas
32	3706	truth_conditions	bare	fur	generic	14	silver	50	True	morseths
32	8088	truth_conditions	irrelevant	shells	generic	15	purple	10	True	javs
32	5086	truth_conditions	distinct	legs	generic	16	silver	30	True	ackles
32	6263	truth_conditions	distinct	scales	generic	17	blue	10	True	reesles
32	4476	truth_conditions	bare	scales	generic	18	red	10	True	blins
32	6154	truth_conditions	distinct	shells	generic	19	orange	50	True	luzaks
32	7169	truth_conditions	irrelevant	spots	generic	20	gold	90	True	stups
32	3311	truth_conditions	distinct	stripes	generic	21	copper	70	True	mooks
32	3786	truth_conditions	distinct	teeth	generic	22	green	50	True	zoovs
32	2673	truth_conditions	distinct	spots	generic	23	red	10	True	sapers
32	5252	truth_conditions	irrelevant	ears	generic	24	orange	50	True	kazzes
32	3141	truth_conditions	irrelevant	fur	generic	25	copper	70	True	kweps
32	4420	truth_conditions	distinct	feathers	generic	26	gold	90	True	plovs
32	7684	truth_conditions	irrelevant	legs	generic	27	pink	50	True	feps
32	3864	truth_conditions	bare	feathers	generic	28	purple	70	True	lorches
32	3609	truth_conditions	distinct	fur	generic	29	yellow	30	True	ollers
33	13466	truth_conditions	bare	scales	generic	0	red	70	True	blins
33	12066	truth_conditions	distinct	teeth	generic	1	green	10	False	zoovs
33	7534	truth_conditions	bare	feathers	generic	2	purple	30	False	lorches
33	5714	truth_conditions	bare	ears	generic	3	blue	90	True	cheebas
33	7986	truth_conditions	irrelevant	tails	generic	4	green	90	True	trufts
33	6168	truth_conditions	bare	fur	generic	5	silver	50	True	morseths
33	8080	truth_conditions	irrelevant	stripes	generic	6	silver	70	True	frams
33	8851	truth_conditions	distinct	legs	generic	7	silver	50	True	ackles
33	7200	truth_conditions	irrelevant	feathers	generic	8	red	90	True	noobs
33	7466	truth_conditions	irrelevant	ears	generic	9	orange	30	False	kazzes
33	6665	truth_conditions	distinct	stripes	generic	10	copper	70	True	mooks
33	7334	truth_conditions	distinct	scales	generic	11	blue	90	True	reesles
33	5802	truth_conditions	bare	legs	generic	12	yellow	10	False	ludinos
33	4997	truth_conditions	bare	teeth	generic	13	pink	70	True	krivels
33	6785	truth_conditions	bare	stripes	generic	14	gold	50	True	daiths
33	7715	truth_conditions	distinct	fur	generic	15	yellow	10	False	ollers
33	5066	truth_conditions	bare	spots	generic	16	copper	30	False	glippets
33	7123	truth_conditions	distinct	tails	generic	17	purple	70	True	taifels
33	5496	truth_conditions	distinct	spots	generic	18	red	30	False	sapers
33	6049	truth_conditions	distinct	feathers	generic	19	gold	90	True	plovs
33	9233	truth_conditions	irrelevant	fur	generic	20	copper	10	False	kweps
33	8236	truth_conditions	distinct	shells	generic	21	orange	30	False	luzaks
33	6046	truth_conditions	irrelevant	spots	generic	22	gold	50	True	stups
33	7068	truth_conditions	irrelevant	shells	generic	23	purple	70	True	javs
33	6666	truth_conditions	irrelevant	teeth	generic	24	blue	50	True	thups
33	7032	truth_conditions	irrelevant	scales	generic	25	yellow	10	False	dorbs
33	9850	truth_conditions	distinct	ears	generic	26	pink	50	True	elleps
33	5866	truth_conditions	bare	shells	generic	27	green	10	False	moxes
33	4451	truth_conditions	bare	tails	generic	28	orange	90	True	zorbs
33	7482	truth_conditions	irrelevant	legs	generic	29	pink	30	False	feps
34	3819	truth_conditions	bare	ears	generic	0	blue	10	False	cheebas
34	2043	truth_conditions	irrelevant	spots	generic	1	gold	30	False	stups
34	2264	truth_conditions	bare	fur	generic	2	silver	50	True	morseths
34	2142	truth_conditions	irrelevant	fur	generic	3	copper	50	True	kweps
34	1729	truth_conditions	irrelevant	shells	generic	4	purple	10	False	javs
34	1811	truth_conditions	irrelevant	tails	generic	5	green	50	True	trufts
34	1089	truth_conditions	distinct	shells	generic	6	orange	70	True	luzaks
34	2481	truth_conditions	distinct	fur	generic	7	yellow	10	False	ollers
34	2102	truth_conditions	distinct	feathers	generic	8	gold	50	True	plovs
34	1799	truth_conditions	distinct	stripes	generic	9	copper	90	True	mooks
34	1756	truth_conditions	distinct	scales	generic	10	blue	30	False	reesles
34	1272	truth_conditions	irrelevant	ears	generic	11	orange	90	True	kazzes
34	1447	truth_conditions	bare	teeth	generic	12	pink	30	False	krivels
34	1147	truth_conditions	irrelevant	scales	generic	13	yellow	30	False	dorbs
34	1109	truth_conditions	irrelevant	feathers	generic	14	red	10	False	noobs
34	1164	truth_conditions	irrelevant	teeth	generic	15	blue	70	True	thups
34	1108	truth_conditions	bare	legs	generic	16	yellow	90	True	ludinos
34	2824	truth_conditions	distinct	legs	generic	17	silver	30	False	ackles
34	1030	truth_conditions	distinct	ears	generic	18	pink	70	True	elleps
34	1102	truth_conditions	irrelevant	legs	generic	19	pink	70	True	feps
34	1812	truth_conditions	distinct	teeth	generic	20	green	90	True	zoovs
34	1812	truth_conditions	bare	scales	generic	21	red	70	True	blins
34	1378	truth_conditions	bare	stripes	generic	22	gold	90	True	daiths
34	4159	truth_conditions	distinct	tails	generic	23	purple	10	False	taifels
34	4699	truth_conditions	bare	shells	generic	24	green	30	False	moxes
34	1421	truth_conditions	bare	spots	generic	25	copper	70	True	glippets
34	1280	truth_conditions	bare	tails	generic	26	orange	50	True	zorbs
34	1405	truth_conditions	bare	feathers	generic	27	purple	10	False	lorches
34	2737	truth_conditions	irrelevant	stripes	generic	28	silver	90	True	frams
34	3134	truth_conditions	distinct	spots	generic	29	red	50	True	sapers
35	7474	truth_conditions	bare	spots	generic	0	copper	70	True	glippets
35	9048	truth_conditions	irrelevant	stripes	generic	1	silver	10	True	frams
35	7353	truth_conditions	irrelevant	feathers	generic	2	red	50	True	noobs
35	8778	truth_conditions	distinct	fur	generic	3	yellow	50	True	ollers
35	5197	truth_conditions	irrelevant	legs	generic	4	pink	30	True	feps
35	7667	truth_conditions	distinct	legs	generic	5	silver	70	True	ackles
35	3319	truth_conditions	irrelevant	shells	generic	6	purple	30	True	javs
35	6860	truth_conditions	bare	legs	generic	7	yellow	50	True	ludinos
35	2618	truth_conditions	irrelevant	teeth	generic	8	blue	90	True	thups
35	3174	truth_conditions	distinct	shells	generic	9	orange	90	True	luzaks
35	4866	truth_conditions	distinct	spots	generic	10	red	10	True	sapers
35	2616	truth_conditions	distinct	scales	generic	11	blue	30	True	reesles
35	2301	truth_conditions	irrelevant	fur	generic	12	copper	10	True	kweps
35	2237	truth_conditions	distinct	ears	generic	13	pink	50	True	elleps
35	2265	truth_conditions	distinct	teeth	generic	14	green	90	True	zoovs
35	2388	truth_conditions	distinct	tails	generic	15	purple	30	True	taifels
35	2345	truth_conditions	irrelevant	tails	generic	16	green	70	True	trufts
35	3318	truth_conditions	bare	fur	generic	17	silver	10	True	morseths
35	3040	truth_conditions	distinct	stripes	generic	18	copper	70	True	mooks
35	15545	truth_conditions	irrelevant	spots	generic	19	gold	90	True	stups
35	1772	truth_conditions	distinct	feathers	generic	20	gold	10	True	plovs
35	2157	truth_conditions	bare	shells	generic	21	green	50	True	moxes
35	2646	truth_conditions	bare	feathers	generic	22	purple	90	True	lorches
35	2112	truth_conditions	bare	scales	generic	23	red	30	True	blins
35	2475	truth_conditions	irrelevant	scales	generic	24	yellow	50	True	dorbs
35	1747	truth_conditions	bare	stripes	generic	25	gold	70	True	daiths
35	1980	truth_conditions	bare	teeth	generic	26	pink	30	True	krivels
35	1660	truth_conditions	bare	ears	generic	27	blue	90	True	cheebas
35	1755	truth_conditions	irrelevant	ears	generic	28	orange	70	True	kazzes
35	1456	truth_conditions	bare	tails	generic	29	orange	10	True	zorbs
36	7789	truth_conditions	bare	ears	generic	0	blue	70	False	cheebas
36	5322	truth_conditions	distinct	feathers	generic	1	gold	70	True	plovs
36	5102	truth_conditions	distinct	scales	generic	2	blue	30	False	reesles
36	7459	truth_conditions	irrelevant	spots	generic	3	gold	30	False	stups
36	4852	truth_conditions	irrelevant	scales	generic	4	yellow	50	False	dorbs
36	2773	truth_conditions	bare	tails	generic	5	orange	30	False	zorbs
36	2590	truth_conditions	bare	shells	generic	6	green	50	False	moxes
36	3854	truth_conditions	bare	legs	generic	7	yellow	50	False	ludinos
36	2094	truth_conditions	bare	feathers	generic	8	purple	70	True	lorches
36	3776	truth_conditions	irrelevant	fur	generic	9	copper	10	False	kweps
36	3886	truth_conditions	distinct	spots	generic	10	red	90	True	sapers
36	4818	truth_conditions	distinct	ears	generic	11	pink	30	False	elleps
36	2423	truth_conditions	bare	stripes	generic	12	gold	10	False	daiths
36	2655	truth_conditions	bare	scales	generic	13	red	30	False	blins
36	6274	truth_conditions	distinct	teeth	generic	14	green	50	False	zoovs
36	3455	truth_conditions	irrelevant	legs	generic	15	pink	70	True	feps
36	3846	truth_conditions	distinct	shells	generic	16	orange	90	True	luzaks
36	2677	truth_conditions	bare	fur	generic	17	silver	10	False	morseths
36	2971	truth_conditions	distinct	fur	generic	18	yellow	50	False	ollers
36	6145	truth_conditions	irrelevant	shells	generic	19	purple	30	False	javs
36	2589	truth_conditions	irrelevant	tails	generic	20	green	10	False	trufts
36	2804	truth_conditions	irrelevant	teeth	generic	21	blue	70	True	thups
36	3593	truth_conditions	irrelevant	stripes	generic	22	silver	90	True	frams
36	2182	truth_conditions	irrelevant	ears	generic	23	orange	90	True	kazzes
36	3036	truth_conditions	distinct	stripes	generic	24	copper	10	False	mooks
36	3519	truth_conditions	irrelevant	feathers	generic	25	red	50	False	noobs
36	3482	truth_conditions	bare	teeth	generic	26	pink	90	True	krivels
36	2327	truth_conditions	distinct	tails	generic	27	purple	10	False	taifels
36	3202	truth_conditions	distinct	legs	generic	28	silver	70	True	ackles
36	1889	truth_conditions	bare	spots	generic	29	copper	90	True	glippets
37	10522	truth_conditions	distinct	stripes	generic	0	copper	30	True	mooks
37	10879	truth_conditions	bare	tails	generic	1	orange	10	False	zorbs
37	14261	truth_conditions	distinct	scales	generic	2	blue	50	True	reesles
37	8176	truth_conditions	irrelevant	spots	generic	3	gold	90	True	stups
37	7880	truth_conditions	irrelevant	stripes	generic	4	silver	10	False	frams
37	8159	truth_conditions	distinct	ears	generic	5	pink	90	True	elleps
37	7352	truth_conditions	irrelevant	feathers	generic	6	red	50	False	noobs
37	10448	truth_conditions	distinct	shells	generic	7	orange	10	False	luzaks
37	6800	truth_conditions	irrelevant	teeth	generic	8	blue	70	True	thups
37	7176	truth_conditions	distinct	tails	generic	9	purple	70	True	taifels
37	3832	truth_conditions	bare	stripes	generic	10	gold	90	True	daiths
37	8401	truth_conditions	irrelevant	shells	generic	11	purple	50	True	javs
37	4391	truth_conditions	bare	spots	generic	12	copper	90	True	glippets
37	5799	truth_conditions	distinct	spots	generic	13	red	70	True	sapers
37	9200	truth_conditions	bare	scales	generic	14	red	30	False	blins
37	5247	truth_conditions	bare	teeth	generic	15	pink	30	False	krivels
37	7176	truth_conditions	bare	ears	generic	16	blue	50	True	cheebas
37	5704	truth_conditions	irrelevant	tails	generic	17	green	30	False	trufts
37	3912	truth_conditions	distinct	legs	generic	18	silver	10	False	ackles
37	3408	truth_conditions	irrelevant	ears	generic	19	orange	10	False	kazzes
37	3416	truth_conditions	distinct	teeth	generic	20	green	30	False	zoovs
37	3784	truth_conditions	distinct	fur	generic	21	yellow	90	True	ollers
37	4968	truth_conditions	irrelevant	legs	generic	22	pink	90	True	feps
37	5968	truth_conditions	bare	fur	generic	23	silver	50	True	morseths
37	3592	truth_conditions	bare	shells	generic	24	green	70	True	moxes
37	7176	truth_conditions	distinct	feathers	generic	25	gold	50	True	plovs
37	3296	truth_conditions	irrelevant	fur	generic	26	copper	30	False	kweps
37	4848	truth_conditions	bare	feathers	generic	27	purple	70	True	lorches
37	4777	truth_conditions	bare	legs	generic	28	yellow	10	False	ludinos
37	3960	truth_conditions	irrelevant	scales	generic	29	yellow	70	True	dorbs
38	6143	truth_conditions	bare	stripes	generic	0	gold	30	True	daiths
38	16919	truth_conditions	bare	tails	generic	1	orange	10	True	zorbs
38	3248	truth_conditions	bare	scales	generic	2	red	10	True	blins
38	3055	truth_conditions	bare	ears	generic	3	blue	70	True	cheebas
38	12722	truth_conditions	distinct	stripes	generic	4	copper	90	True	mooks
38	7560	truth_conditions	distinct	fur	generic	5	yellow	50	True	ollers
38	5657	truth_conditions	distinct	scales	generic	6	blue	10	True	reesles
38	15113	truth_conditions	irrelevant	feathers	generic	7	red	90	True	noobs
38	9670	truth_conditions	distinct	shells	generic	8	orange	30	True	luzaks
38	8614	truth_conditions	irrelevant	shells	generic	9	purple	10	True	javs
38	3767	truth_conditions	bare	shells	generic	10	green	90	True	moxes
38	4329	truth_conditions	distinct	spots	generic	11	red	90	True	sapers
38	2696	truth_conditions	irrelevant	teeth	generic	12	blue	70	True	thups
38	3673	truth_conditions	irrelevant	tails	generic	13	green	30	True	trufts
38	5063	truth_conditions	distinct	feathers	generic	14	gold	70	True	plovs
38	2185	truth_conditions	irrelevant	legs	generic	15	pink	70	True	feps
38	1500	truth_conditions	bare	legs	generic	16	yellow	70	True	ludinos
38	1178	truth_conditions	bare	teeth	generic	17	pink	50	True	krivels
38	2361	truth_conditions	distinct	ears	generic	18	pink	70	True	elleps
38	1271	truth_conditions	irrelevant	fur	generic	19	copper	50	True	kweps
38	1271	truth_conditions	irrelevant	scales	generic	20	yellow	90	True	dorbs
38	1529	truth_conditions	irrelevant	spots	generic	21	gold	50	True	stups
38	1407	truth_conditions	irrelevant	stripes	generic	22	silver	30	True	frams
38	3208	truth_conditions	bare	spots	generic	23	copper	50	True	glippets
38	2944	truth_conditions	distinct	legs	generic	24	silver	50	True	ackles
38	3104	truth_conditions	bare	fur	generic	25	silver	30	True	morseths
38	4540	truth_conditions	distinct	tails	generic	26	purple	10	True	taifels
38	1645	truth_conditions	distinct	teeth	generic	27	green	30	True	zoovs
38	1881	truth_conditions	irrelevant	ears	generic	28	orange	10	True	kazzes
38	2351	truth_conditions	bare	feathers	generic	29	purple	90	True	lorches
39	52464	truth_conditions	distinct	tails	generic	0	purple	10	True	taifels
39	20447	truth_conditions	distinct	stripes	generic	1	copper	70	True	mooks
39	36677	truth_conditions	distinct	teeth	generic	2	green	30	False	zoovs
39	20719	truth_conditions	distinct	scales	generic	3	blue	30	False	reesles
39	29443	truth_conditions	distinct	fur	generic	4	yellow	90	False	ollers
39	70881	truth_conditions	irrelevant	legs	generic	5	pink	70	True	feps
39	16831	truth_conditions	distinct	shells	generic	6	orange	50	False	luzaks
39	18078	truth_conditions	distinct	legs	generic	7	silver	90	True	ackles
39	55959	truth_conditions	irrelevant	shells	generic	8	purple	30	False	javs
39	14465	truth_conditions	bare	fur	generic	9	silver	90	True	morseths
39	13374	truth_conditions	distinct	ears	generic	10	pink	70	False	elleps
39	11313	truth_conditions	bare	shells	generic	11	green	10	False	moxes
39	12112	truth_conditions	distinct	feathers	generic	12	gold	10	False	plovs
39	12061	truth_conditions	irrelevant	stripes	generic	13	silver	50	False	frams
39	14137	truth_conditions	bare	scales	generic	14	red	30	False	blins
39	13241	truth_conditions	bare	spots	generic	15	copper	50	False	glippets
39	9109	truth_conditions	bare	tails	generic	16	orange	90	True	zorbs
39	10944	truth_conditions	irrelevant	teeth	generic	17	blue	90	True	thups
39	15410	truth_conditions	irrelevant	scales	generic	18	yellow	50	False	dorbs
39	7256	truth_conditions	bare	stripes	generic	19	gold	70	True	daiths
39	17418	truth_conditions	irrelevant	tails	generic	20	green	30	False	trufts
39	5294	truth_conditions	bare	feathers	generic	21	purple	30	False	lorches
39	23571	truth_conditions	distinct	spots	generic	22	red	50	True	sapers
39	6215	truth_conditions	bare	legs	generic	23	yellow	10	False	ludinos
39	14888	truth_conditions	irrelevant	ears	generic	24	orange	70	True	kazzes
39	10512	truth_conditions	irrelevant	feathers	generic	25	red	10	False	noobs
39	5230	truth_conditions	bare	teeth	generic	26	pink	50	False	krivels
39	15391	truth_conditions	irrelevant	spots	generic	27	gold	90	False	stups
39	26052	truth_conditions	bare	ears	generic	28	blue	70	False	cheebas
39	10268	truth_conditions	irrelevant	fur	generic	29	copper	10	False	kweps